ax,ay,az,gx,gy,gz,label
-2.1739999999999995,-0.6759999999999999,929.0,-0.6960000000000015,0.20000000000000018,0.8039999999999985,0
-3.1739999999999995,3.324,932.0,1.3039999999999985,0.20000000000000018,-1.1960000000000015,0
-0.1739999999999995,0.324,937.0,1.3039999999999985,1.2000000000000002,0.8039999999999985,0
-4.1739999999999995,0.324,923.0,0.3039999999999985,-1.7999999999999998,0.8039999999999985,0
-2.1739999999999995,0.324,937.0,-1.6960000000000015,-0.7999999999999998,1.8039999999999985,0
0.8260000000000005,0.324,931.0,0.3039999999999985,0.20000000000000018,-0.1960000000000015,0
-2.1739999999999995,-1.676,925.0,0.3039999999999985,-1.7999999999999998,-0.1960000000000015,0
0.8260000000000005,1.324,932.0,0.3039999999999985,-0.7999999999999998,0.8039999999999985,0
4.8260000000000005,-1.676,933.0,1.3039999999999985,0.20000000000000018,-0.1960000000000015,0
-0.1739999999999995,1.324,933.0,1.3039999999999985,0.20000000000000018,1.8039999999999985,0
1.8260000000000005,2.324,933.0,0.3039999999999985,-0.7999999999999998,-1.1960000000000015,0
0.8260000000000005,2.324,919.0,0.3039999999999985,-0.7999999999999998,-0.1960000000000015,0
0.8260000000000005,-0.6759999999999999,933.0,0.3039999999999985,0.20000000000000018,1.8039999999999985,0
-4.1739999999999995,-0.6759999999999999,933.0,1.3039999999999985,1.2000000000000002,1.8039999999999985,0
-7.1739999999999995,-4.676,916.0,0.3039999999999985,2.2,0.8039999999999985,0
2.8260000000000005,0.324,930.0,1.3039999999999985,1.2000000000000002,-0.1960000000000015,0
-1.1739999999999995,2.324,930.0,0.3039999999999985,-1.7999999999999998,-0.1960000000000015,0
0.8260000000000005,1.324,933.0,0.3039999999999985,1.2000000000000002,-1.1960000000000015,0
1.8260000000000005,0.324,934.0,0.3039999999999985,1.2000000000000002,0.8039999999999985,0
-7.1739999999999995,-5.676,926.0,0.3039999999999985,-0.7999999999999998,-0.1960000000000015,0
-1.1739999999999995,0.324,935.0,-0.6960000000000015,-0.7999999999999998,0.8039999999999985,0
2.8260000000000005,3.324,940.0,2.3039999999999985,3.2,-2.1960000000000015,0
3.8260000000000005,-3.676,928.0,-0.6960000000000015,0.20000000000000018,0.8039999999999985,0
-1.1739999999999995,3.324,932.0,-0.6960000000000015,-1.7999999999999998,-0.1960000000000015,0
-1.1739999999999995,-4.676,940.0,0.3039999999999985,0.20000000000000018,0.8039999999999985,0
-5.1739999999999995,-3.676,932.0,0.3039999999999985,1.2000000000000002,0.8039999999999985,0
-2.1739999999999995,4.324,929.0,1.3039999999999985,0.20000000000000018,-0.1960000000000015,0
6.8260000000000005,4.324,934.0,-0.6960000000000015,-1.7999999999999998,-0.1960000000000015,0
0.8260000000000005,2.324,928.0,1.3039999999999985,-0.7999999999999998,0.8039999999999985,0
-4.1739999999999995,-0.6759999999999999,924.0,-0.6960000000000015,0.20000000000000018,0.8039999999999985,0
-8.174,0.324,921.0,-0.6960000000000015,1.2000000000000002,-0.1960000000000015,0
-0.1739999999999995,0.324,927.0,-0.6960000000000015,-0.7999999999999998,0.8039999999999985,0
-0.1739999999999995,3.324,938.0,-0.6960000000000015,0.20000000000000018,-0.1960000000000015,0
-1.1739999999999995,0.324,929.0,-0.6960000000000015,-1.7999999999999998,-1.1960000000000015,0
-2.1739999999999995,0.324,918.0,1.3039999999999985,-2.8,0.8039999999999985,0
-4.1739999999999995,-1.676,919.0,0.3039999999999985,1.2000000000000002,1.8039999999999985,0
-0.1739999999999995,-1.676,930.0,0.3039999999999985,-0.7999999999999998,-0.1960000000000015,0
7.8260000000000005,-2.676,943.0,0.3039999999999985,-0.7999999999999998,-0.1960000000000015,0
-0.1739999999999995,-3.676,926.0,0.3039999999999985,0.20000000000000018,1.8039999999999985,0
-2.1739999999999995,-1.676,934.0,-0.6960000000000015,-1.7999999999999998,1.8039999999999985,0
2.8260000000000005,-0.6759999999999999,933.0,0.3039999999999985,0.20000000000000018,0.8039999999999985,0
-4.1739999999999995,-3.676,929.0,-0.6960000000000015,1.2000000000000002,-0.1960000000000015,0
-1.1739999999999995,1.324,930.0,0.3039999999999985,1.2000000000000002,-0.1960000000000015,0
1.8260000000000005,0.324,922.0,-0.6960000000000015,-3.8,0.8039999999999985,0
1.8260000000000005,0.324,924.0,-0.6960000000000015,-0.7999999999999998,-1.1960000000000015,0
-1.1739999999999995,0.324,932.0,0.3039999999999985,0.20000000000000018,0.8039999999999985,0
0.8260000000000005,0.324,925.0,0.3039999999999985,0.20000000000000018,-0.1960000000000015,0
0.8260000000000005,2.324,936.0,-0.6960000000000015,-0.7999999999999998,-0.1960000000000015,0
-1.1739999999999995,1.324,929.0,0.3039999999999985,0.20000000000000018,-0.1960000000000015,0
-3.1739999999999995,1.324,930.0,1.3039999999999985,0.20000000000000018,0.8039999999999985,0
-7.1739999999999995,0.324,930.0,-0.6960000000000015,-0.7999999999999998,-1.1960000000000015,0
-5.1739999999999995,1.324,934.0,1.3039999999999985,-0.7999999999999998,-1.1960000000000015,0
-3.1739999999999995,0.324,943.0,0.3039999999999985,0.20000000000000018,0.8039999999999985,0
-5.1739999999999995,3.324,927.0,2.3039999999999985,-1.7999999999999998,-0.1960000000000015,0
-3.1739999999999995,0.324,923.0,-0.6960000000000015,1.2000000000000002,-1.1960000000000015,0
-1.1739999999999995,-1.676,929.0,-1.6960000000000015,0.20000000000000018,-0.1960000000000015,0
-1.1739999999999995,3.324,932.0,1.3039999999999985,-0.7999999999999998,0.8039999999999985,0
0.8260000000000005,0.324,918.0,-0.6960000000000015,-1.7999999999999998,-0.1960000000000015,0
-1.1739999999999995,1.324,937.0,0.3039999999999985,-0.7999999999999998,-0.1960000000000015,0
-5.1739999999999995,3.324,934.0,2.3039999999999985,1.2000000000000002,-0.1960000000000015,0
-3.1739999999999995,-1.676,929.0,-0.6960000000000015,-0.7999999999999998,-0.1960000000000015,0
-3.1739999999999995,0.324,921.0,0.3039999999999985,1.2000000000000002,-0.1960000000000015,0
-1.1739999999999995,0.324,935.0,1.3039999999999985,0.20000000000000018,0.8039999999999985,0
-7.1739999999999995,3.324,933.0,-1.6960000000000015,0.20000000000000018,-0.1960000000000015,0
-9.174,-0.6759999999999999,922.0,2.3039999999999985,3.2,-0.1960000000000015,0
2.8260000000000005,4.324,927.0,0.3039999999999985,1.2000000000000002,0.8039999999999985,0
-3.1739999999999995,0.324,917.0,3.3039999999999985,1.2000000000000002,-0.1960000000000015,0
0.8260000000000005,6.324,932.0,1.3039999999999985,0.20000000000000018,0.8039999999999985,0
4.8260000000000005,0.324,930.0,1.3039999999999985,-1.7999999999999998,-0.1960000000000015,0
-4.1739999999999995,2.324,925.0,0.3039999999999985,-0.7999999999999998,0.8039999999999985,0
2.8260000000000005,4.324,919.0,-0.6960000000000015,0.20000000000000018,0.8039999999999985,0
1.8260000000000005,-8.676,930.0,-0.6960000000000015,-0.7999999999999998,1.8039999999999985,0
-4.1739999999999995,-3.676,927.0,2.3039999999999985,-0.7999999999999998,0.8039999999999985,0
-3.1739999999999995,-5.676,942.0,2.3039999999999985,1.2000000000000002,0.8039999999999985,0
-2.1739999999999995,1.324,932.0,0.3039999999999985,0.20000000000000018,-0.1960000000000015,0
-8.174,2.324,910.0,-1.6960000000000015,-1.7999999999999998,0.8039999999999985,0
0.8260000000000005,0.324,937.0,1.3039999999999985,1.2000000000000002,1.8039999999999985,0
0.8260000000000005,-1.676,929.0,1.3039999999999985,1.2000000000000002,-1.1960000000000015,0
-3.1739999999999995,-1.676,924.0,0.3039999999999985,0.20000000000000018,-0.1960000000000015,0
-4.1739999999999995,-2.676,930.0,0.3039999999999985,1.2000000000000002,-1.1960000000000015,0
-4.1739999999999995,-0.6759999999999999,931.0,0.3039999999999985,0.20000000000000018,-0.1960000000000015,0
-1.1739999999999995,0.324,916.0,0.3039999999999985,-0.7999999999999998,0.8039999999999985,0
-5.1739999999999995,3.324,926.0,0.3039999999999985,-0.7999999999999998,1.8039999999999985,0
-0.1739999999999995,4.324,930.0,0.3039999999999985,2.2,-0.1960000000000015,0
1.8260000000000005,0.324,931.0,0.3039999999999985,1.2000000000000002,1.8039999999999985,0
0.8260000000000005,0.324,929.0,-0.6960000000000015,1.2000000000000002,-0.1960000000000015,0
-0.1739999999999995,0.324,922.0,-1.6960000000000015,0.20000000000000018,-0.1960000000000015,0
1.8260000000000005,-2.676,926.0,1.3039999999999985,-0.7999999999999998,-0.1960000000000015,0
-8.174,5.324,927.0,-0.6960000000000015,-0.7999999999999998,-0.1960000000000015,0
-2.1739999999999995,0.324,925.0,0.3039999999999985,-0.7999999999999998,0.8039999999999985,0
3.8260000000000005,0.324,928.0,0.3039999999999985,0.20000000000000018,0.8039999999999985,0
-4.1739999999999995,1.324,928.0,-1.6960000000000015,-4.8,-0.1960000000000015,0
0.8260000000000005,-3.676,926.0,-0.6960000000000015,-0.7999999999999998,-0.1960000000000015,0
-3.1739999999999995,5.324,929.0,0.3039999999999985,1.2000000000000002,-1.1960000000000015,0
-0.1739999999999995,-1.676,929.0,-1.6960000000000015,1.2000000000000002,0.8039999999999985,0
2.8260000000000005,0.324,924.0,1.3039999999999985,-0.7999999999999998,-0.1960000000000015,0
-5.1739999999999995,7.324,927.0,0.3039999999999985,0.20000000000000018,-1.1960000000000015,0
0.8260000000000005,4.324,947.0,1.3039999999999985,3.2,-1.1960000000000015,0
-7.1739999999999995,1.324,935.0,0.3039999999999985,-0.7999999999999998,0.8039999999999985,0
-4.1739999999999995,1.324,940.0,3.3039999999999985,1.2000000000000002,0.8039999999999985,0
-1.1739999999999995,7.324,921.0,0.3039999999999985,0.20000000000000018,-0.1960000000000015,0
0.8260000000000005,0.324,930.0,1.3039999999999985,3.2,-0.1960000000000015,0
-4.1739999999999995,-2.676,924.0,-1.6960000000000015,-1.7999999999999998,-0.1960000000000015,0
-0.1739999999999995,-0.6759999999999999,915.0,-4.6960000000000015,-3.8,2.8039999999999985,0
0.8260000000000005,0.324,919.0,-0.6960000000000015,-2.8,-0.1960000000000015,0
-2.1739999999999995,-1.676,921.0,-0.6960000000000015,-0.7999999999999998,-0.1960000000000015,0
5.8260000000000005,0.324,941.0,3.3039999999999985,4.2,-0.1960000000000015,0
0.8260000000000005,-3.676,920.0,-0.6960000000000015,-1.7999999999999998,0.8039999999999985,0
5.8260000000000005,-1.676,925.0,0.3039999999999985,-0.7999999999999998,-0.1960000000000015,0
0.8260000000000005,3.324,927.0,-0.6960000000000015,-1.7999999999999998,0.8039999999999985,0
-2.1739999999999995,0.324,923.0,-0.6960000000000015,0.20000000000000018,1.8039999999999985,0
-1.1739999999999995,2.324,935.0,-1.6960000000000015,-0.7999999999999998,-0.1960000000000015,0
1.8260000000000005,0.324,930.0,1.3039999999999985,-0.7999999999999998,1.8039999999999985,0
-1.1739999999999995,-2.676,927.0,1.3039999999999985,0.20000000000000018,-0.1960000000000015,0
1.8260000000000005,3.324,931.0,-0.6960000000000015,-0.7999999999999998,-0.1960000000000015,0
-5.1739999999999995,1.324,933.0,0.3039999999999985,-0.7999999999999998,-0.1960000000000015,0
0.8260000000000005,-0.6759999999999999,932.0,-0.6960000000000015,1.2000000000000002,0.8039999999999985,0
-0.1739999999999995,0.324,936.0,0.3039999999999985,1.2000000000000002,0.8039999999999985,0
-4.1739999999999995,-0.6759999999999999,930.0,0.3039999999999985,0.20000000000000018,-0.1960000000000015,0
-0.1739999999999995,1.324,927.0,1.3039999999999985,-0.7999999999999998,-0.1960000000000015,0
-3.1739999999999995,-2.676,939.0,-1.6960000000000015,0.20000000000000018,0.8039999999999985,0
-10.174,-0.6759999999999999,934.0,2.3039999999999985,0.20000000000000018,0.8039999999999985,0
-4.1739999999999995,-2.676,937.0,2.3039999999999985,2.2,-0.1960000000000015,0
-0.1739999999999995,2.324,934.0,1.3039999999999985,1.2000000000000002,-0.1960000000000015,0
-1.1739999999999995,0.324,933.0,0.3039999999999985,-2.8,-0.1960000000000015,0
0.8260000000000005,0.324,918.0,1.3039999999999985,1.2000000000000002,-0.1960000000000015,0
-7.1739999999999995,-2.676,933.0,1.3039999999999985,1.2000000000000002,0.8039999999999985,0
1.8260000000000005,4.324,920.0,-0.6960000000000015,-1.7999999999999998,0.8039999999999985,0
-1.1739999999999995,0.324,931.0,0.3039999999999985,0.20000000000000018,-0.1960000000000015,0
-1.1739999999999995,-3.676,935.0,-1.6960000000000015,0.20000000000000018,-0.1960000000000015,0
-5.1739999999999995,0.324,927.0,1.3039999999999985,-1.7999999999999998,0.8039999999999985,0
-4.1739999999999995,-0.6759999999999999,918.0,-0.6960000000000015,1.2000000000000002,1.8039999999999985,0
-2.1739999999999995,-5.676,936.0,0.3039999999999985,1.2000000000000002,1.8039999999999985,0
-2.1739999999999995,-6.676,931.0,0.3039999999999985,-1.7999999999999998,-0.1960000000000015,0
-3.1739999999999995,1.324,916.0,0.3039999999999985,-1.7999999999999998,1.8039999999999985,0
1.8260000000000005,4.324,922.0,0.3039999999999985,1.2000000000000002,-1.1960000000000015,0
5.8260000000000005,-5.676,929.0,1.3039999999999985,-0.7999999999999998,-2.1960000000000015,0
-378.174,30.324,901.0,-516.696,2136.2,-417.196,0
-29.174,-879.676,438.0,-196.696,-967.8,-369.196,0
250.826,-498.676,381.0,560.304,-926.8,64.804,0
64.826,-872.676,538.0,-333.696,-17.8,-141.196,0
-163.174,-1097.676,-221.0,-328.696,18.2,227.804,0
408.826,-904.676,-527.0,851.304,1582.2,-2481.196,0
1096.826,177.324,-491.0,1838.304,-612.8,323.804,0
-341.174,-534.676,188.0,-1625.696,1631.2,94.804,0
612.826,-1059.676,-312.0,372.304,63.2,-198.196,0
-14.174,-794.676,-71.0,-1368.696,-993.8,-592.196,0
-14.174,-572.676,-322.0,-59.696,221.2,50.804,0
-20.174,-772.676,-91.0,469.304,-386.8,-416.196,0
-169.174,-1146.676,594.0,39.304,1936.2,110.804,0
564.826,17.324,457.0,1696.304,-1538.8,-974.196,0
944.826,-418.676,1008.0,-1551.696,2467.2,1371.804,0
-82.174,-914.676,-285.0,1518.304,-1294.8,735.804,0
-9.174,-511.676,909.0,-360.696,327.2,-207.196,0
-47.174,-510.676,775.0,-9.696000000000002,90.2,-23.196,0
-99.174,-522.676,793.0,100.304,-5.8,-10.196000000000002,0
-140.174,-486.676,720.0,35.304,97.2,31.804,0
-148.174,-385.676,845.0,-36.696,16.2,-69.196,0
-234.174,-468.676,766.0,-55.696,-53.8,-50.196,0
-144.174,-622.676,755.0,-181.696,152.2,46.804,0
-186.174,-799.676,463.0,-49.696,-29.8,62.804,0
-200.174,-854.676,475.0,-31.696,55.2,-19.196,0
-194.174,-841.676,439.0,-35.696,44.2,15.803999999999998,0
-51.174,-962.676,435.0,-341.696,133.2,-250.196,0
9.826,-934.676,232.0,-11.696000000000002,-67.8,154.804,0
-172.174,-1342.676,331.0,114.304,-124.8,-627.196,0
250.826,-1052.676,315.0,-583.696,22.2,-112.196,0
313.826,-643.676,639.0,857.304,226.2,-546.196,0
101.826,-868.676,168.0,654.304,5.2,268.804,0
321.826,-778.676,327.0,-50.696,5.2,-193.196,0
376.826,-915.676,223.0,44.304,96.2,177.804,0
36.826,171.324,919.0,297.304,2506.2,347.804,0
-5.1739999999999995,-0.6759999999999999,931.0,-0.6960000000000015,-0.7999999999999998,-0.1960000000000015,0
-642.174,-186.676,240.0,-162.696,591.2,221.804,0
0.8260000000000005,86.324,1268.0,-118.696,-2495.8,1483.804,0
1003.826,-56.676,-518.0,154.304,2506.2,-463.196,0
40.826,-792.676,302.0,8.303999999999998,582.2,-288.196,1
228.826,-946.676,317.0,-86.696,4.2,-1575.196,1
291.826,-925.676,294.0,146.304,-165.8,-115.196,1
250.826,-1052.676,315.0,-583.696,22.2,-112.196,1
252.826,-912.676,309.0,-113.696,198.2,210.804,1
330.826,-909.676,207.0,223.304,741.2,-1275.196,1
365.826,-790.676,249.0,395.304,-510.8,-270.196,1
665.826,-966.676,458.0,712.304,654.2,403.804,1
313.826,-643.676,639.0,857.304,226.2,-546.196,1
218.826,-742.676,787.0,148.304,-881.8,285.804,1
484.826,-669.676,548.0,-195.696,-190.8,78.804,1
464.826,-737.676,620.0,-389.696,201.2,345.804,1
178.826,-806.676,385.0,-877.696,-684.8,420.804,1
101.826,-868.676,168.0,654.304,5.2,268.804,1
439.826,-575.676,588.0,264.304,227.2,-469.196,1
304.826,-911.676,350.0,-221.696,547.2,100.804,1
124.826,-732.676,201.0,177.304,-313.8,542.804,1
341.826,-595.676,475.0,-191.696,-194.8,-281.196,1
321.826,-778.676,327.0,-50.696,5.2,-193.196,1
378.826,-807.676,404.0,-72.696,-42.8,12.803999999999998,1
363.826,-818.676,382.0,-67.696,-2.8,55.804,1
373.826,-837.676,275.0,-130.696,-67.8,168.804,1
355.826,-893.676,288.0,-182.696,-103.8,110.804,1
376.826,-915.676,223.0,44.304,96.2,177.804,1
145.826,-181.676,210.0,648.304,2011.2,1299.804,1
10.826,-369.676,226.0,643.304,2338.2,-64.196,1
516.826,-594.676,-293.0,-2478.696,2506.2,2520.804,1
196.826,198.324,30.0,-496.696,-2495.8,2520.804,1
36.826,171.324,919.0,297.304,2506.2,347.804,1
93.826,-14.676,1230.0,-433.696,246.2,-565.196,1
32.826,-95.676,822.0,-9.696000000000002,-9.8,-37.196,1
2.8260000000000005,6.324,921.0,-0.6960000000000015,-1.7999999999999998,-1.1960000000000015,1
-3.1739999999999995,-0.6759999999999999,923.0,-0.6960000000000015,-0.7999999999999998,-0.1960000000000015,1
-5.1739999999999995,-0.6759999999999999,931.0,-0.6960000000000015,-0.7999999999999998,-0.1960000000000015,1
-3.1739999999999995,0.324,939.0,1.3039999999999985,2.2,-0.1960000000000015,1
498.826,12.324,1315.0,482.304,-185.8,-732.196,1
-119.174,-10.676,938.0,557.304,2506.2,-2188.196,1
-342.174,36.324,303.0,-680.696,1678.2,-637.196,1
-642.174,-186.676,240.0,-162.696,591.2,221.804,1
-816.174,-94.676,365.0,-648.696,866.2,85.804,1
-845.174,-101.676,389.0,-166.696,32.2,103.804,1
-743.174,-125.676,755.0,-391.696,297.2,204.804,1
-893.174,-196.676,1189.0,501.304,-2495.8,619.804,1
0.8260000000000005,86.324,1268.0,-118.696,-2495.8,1483.804,1
799.826,-153.676,554.0,-366.696,-2495.8,-240.196,1
791.826,-63.676,-335.0,695.304,-196.8,-859.196,1
880.826,-419.676,-832.0,-475.696,-2495.8,227.804,1
962.826,-103.676,-805.0,414.304,-518.8,330.804,1
1003.826,-56.676,-518.0,154.304,2506.2,-463.196,1
704.826,-38.676,-169.0,-1396.696,2506.2,-1657.196,1
-2051.174,-1999.676,-2000.0,-2478.696,2506.2,2520.804,1
-2051.174,1999.324,-2000.0,1018.304,2483.2,-236.196,1
-713.174,-9.676,-808.0,255.304,-259.8,144.804,1
-657.174,-23.676,-895.0,-62.696,351.2,-141.196,1
-667.174,-9.676,-854.0,29.304,-180.8,62.804,1
-657.174,-21.676,-873.0,-24.696,125.2,-29.196,1
-662.174,-24.676,-849.0,13.303999999999998,-37.8,8.803999999999998,1
-646.174,-22.676,-857.0,-9.696000000000002,37.2,-6.1960000000000015,1
-651.174,-22.676,-853.0,1.3039999999999985,-0.7999999999999998,-1.1960000000000015,1
-651.174,-25.676,-863.0,-5.6960000000000015,9.2,-1.1960000000000015,1
-650.174,-23.676,-871.0,1.3039999999999985,6.2,-2.1960000000000015,1
-651.174,-26.676,-867.0,0.3039999999999985,10.2,-3.1960000000000015,1
-650.174,-20.676,-869.0,1.3039999999999985,6.2,-2.1960000000000015,1
-644.174,-22.676,-865.0,0.3039999999999985,6.2,-3.1960000000000015,1
-644.174,-20.676,-869.0,1.3039999999999985,5.2,-2.1960000000000015,1
-645.174,-24.676,-860.0,-1.6960000000000015,5.2,-0.1960000000000015,1
-641.174,-28.676,-874.0,-0.6960000000000015,3.2,-1.1960000000000015,1
-636.174,-25.676,-869.0,1.3039999999999985,4.2,-2.1960000000000015,1
-635.174,-28.676,-866.0,0.3039999999999985,5.2,-4.1960000000000015,1
-633.174,-26.676,-863.0,-0.6960000000000015,3.2,-0.1960000000000015,1
-636.174,-23.676,-868.0,0.3039999999999985,5.2,-4.1960000000000015,1
-640.174,-21.676,-871.0,-2.6960000000000015,6.2,0.8039999999999985,1
-634.174,-27.676,-874.0,0.3039999999999985,4.2,-1.1960000000000015,1
-642.174,-25.676,-874.0,1.3039999999999985,3.2,-1.1960000000000015,1
-630.174,-28.676,-872.0,0.3039999999999985,5.2,-0.1960000000000015,1
-639.174,-24.676,-862.0,1.3039999999999985,3.2,-1.1960000000000015,1
-632.174,-25.676,-871.0,1.3039999999999985,0.20000000000000018,-0.1960000000000015,1
-635.174,-30.676,-867.0,0.3039999999999985,2.2,-0.1960000000000015,1
-636.174,-30.676,-871.0,-0.6960000000000015,1.2000000000000002,-2.1960000000000015,1
-632.174,-26.676,-878.0,1.3039999999999985,3.2,-2.1960000000000015,1
-634.174,-23.676,-865.0,1.3039999999999985,2.2,-3.1960000000000015,1
-630.174,-22.676,-879.0,-0.6960000000000015,1.2000000000000002,-1.1960000000000015,1
-628.174,-22.676,-875.0,-1.6960000000000015,4.2,-0.1960000000000015,1
-623.174,-26.676,-884.0,-2.6960000000000015,5.2,-1.1960000000000015,1
-637.174,-29.676,-879.0,-2.6960000000000015,5.2,-0.1960000000000015,1
-633.174,-24.676,-869.0,-2.6960000000000015,5.2,-1.1960000000000015,1
-623.174,-25.676,-883.0,1.3039999999999985,5.2,-1.1960000000000015,1
-634.174,-31.676,-871.0,-0.6960000000000015,0.20000000000000018,-2.1960000000000015,1
-616.174,-23.676,-885.0,-2.6960000000000015,3.2,-1.1960000000000015,1
-625.174,-28.676,-881.0,-6.6960000000000015,10.2,-2.1960000000000015,1
-631.174,-27.676,-880.0,-3.6960000000000015,4.2,-0.1960000000000015,1
-631.174,-25.676,-881.0,5.3039999999999985,0.20000000000000018,-2.1960000000000015,1
-632.174,-32.676,-877.0,2.3039999999999985,0.20000000000000018,-2.1960000000000015,1
-627.174,-29.676,-885.0,1.3039999999999985,0.20000000000000018,1.8039999999999985,1
-629.174,-28.676,-892.0,-0.6960000000000015,8.2,-0.1960000000000015,1
-624.174,-24.676,-885.0,-3.6960000000000015,9.2,0.8039999999999985,1
-628.174,-25.676,-874.0,5.3039999999999985,-0.7999999999999998,-3.1960000000000015,1
-617.174,-27.676,-881.0,3.3039999999999985,1.2000000000000002,-0.1960000000000015,1
-622.174,-25.676,-884.0,-1.6960000000000015,2.2,1.8039999999999985,1
-626.174,-28.676,-883.0,1.3039999999999985,-0.7999999999999998,0.8039999999999985,1
-639.174,-35.676,-896.0,0.3039999999999985,2.2,-1.1960000000000015,1
-1607.174,-71.676,-753.0,97.304,-1782.8,-180.196,0
-181.174,27.324,807.0,19.304,-1798.8,418.804,0
0.8260000000000005,-5.676,919.0,2.3039999999999985,0.20000000000000018,0.8039999999999985,0
-5.1739999999999995,-1.676,933.0,-0.6960000000000015,-0.7999999999999998,1.8039999999999985,0
-6.1739999999999995,3.324,926.0,-1.6960000000000015,0.20000000000000018,0.8039999999999985,0
-4.1739999999999995,-1.676,919.0,0.3039999999999985,1.2000000000000002,-1.1960000000000015,0
-2.1739999999999995,4.324,935.0,0.3039999999999985,0.20000000000000018,-0.1960000000000015,0
0.8260000000000005,-0.6759999999999999,933.0,-0.6960000000000015,1.2000000000000002,0.8039999999999985,0
-1.1739999999999995,0.324,935.0,0.3039999999999985,-0.7999999999999998,0.8039999999999985,0
-5.1739999999999995,4.324,932.0,0.3039999999999985,0.20000000000000018,0.8039999999999985,0
-2.1739999999999995,-0.6759999999999999,928.0,0.3039999999999985,-0.7999999999999998,0.8039999999999985,0
0.8260000000000005,3.324,919.0,-1.6960000000000015,-0.7999999999999998,2.8039999999999985,0
1.8260000000000005,1.324,927.0,1.3039999999999985,-0.7999999999999998,1.8039999999999985,0
-10.174,-2.676,933.0,0.3039999999999985,2.2,0.8039999999999985,0
-7.1739999999999995,-0.6759999999999999,924.0,-0.6960000000000015,0.20000000000000018,-0.1960000000000015,0
-5.1739999999999995,1.324,929.0,-0.6960000000000015,0.20000000000000018,-2.1960000000000015,0
-3.1739999999999995,1.324,931.0,1.3039999999999985,1.2000000000000002,-0.1960000000000015,0
-0.1739999999999995,-0.6759999999999999,927.0,-0.6960000000000015,-1.7999999999999998,-0.1960000000000015,0
0.8260000000000005,-4.676,921.0,1.3039999999999985,0.20000000000000018,0.8039999999999985,0
-3.1739999999999995,4.324,932.0,-1.6960000000000015,0.20000000000000018,-1.1960000000000015,0
-7.1739999999999995,-5.676,929.0,-0.6960000000000015,0.20000000000000018,0.8039999999999985,0
-5.1739999999999995,-1.676,937.0,-1.6960000000000015,-0.7999999999999998,0.8039999999999985,0
-1.1739999999999995,-0.6759999999999999,923.0,0.3039999999999985,1.2000000000000002,-1.1960000000000015,0
-0.1739999999999995,0.324,926.0,-0.6960000000000015,-0.7999999999999998,-0.1960000000000015,0
-2.1739999999999995,0.324,929.0,-1.6960000000000015,-1.7999999999999998,-0.1960000000000015,0
-4.1739999999999995,1.324,927.0,0.3039999999999985,1.2000000000000002,0.8039999999999985,0
-2.1739999999999995,-3.676,927.0,-1.6960000000000015,0.20000000000000018,-0.1960000000000015,0
1.8260000000000005,-1.676,908.0,3.3039999999999985,-1.7999999999999998,1.8039999999999985,0
-0.1739999999999995,-0.6759999999999999,936.0,2.3039999999999985,1.2000000000000002,-1.1960000000000015,0
0.8260000000000005,2.324,927.0,1.3039999999999985,-1.7999999999999998,0.8039999999999985,0
-1.1739999999999995,-3.676,943.0,-0.6960000000000015,-0.7999999999999998,0.8039999999999985,0
-4.1739999999999995,-5.676,929.0,1.3039999999999985,0.20000000000000018,-0.1960000000000015,0
-7.1739999999999995,3.324,938.0,-0.6960000000000015,1.2000000000000002,-0.1960000000000015,0
-1.1739999999999995,-0.6759999999999999,924.0,0.3039999999999985,0.20000000000000018,-0.1960000000000015,0
-2.1739999999999995,2.324,932.0,0.3039999999999985,-0.7999999999999998,0.8039999999999985,0
0.8260000000000005,-0.6759999999999999,932.0,2.3039999999999985,4.2,1.8039999999999985,0
1.8260000000000005,-3.676,939.0,-0.6960000000000015,-1.7999999999999998,-2.1960000000000015,0
-6.1739999999999995,-0.6759999999999999,931.0,0.3039999999999985,0.20000000000000018,-0.1960000000000015,0
1.8260000000000005,-1.676,927.0,0.3039999999999985,-1.7999999999999998,-0.1960000000000015,0
-3.1739999999999995,-2.676,932.0,-0.6960000000000015,2.2,-0.1960000000000015,0
-6.1739999999999995,3.324,936.0,1.3039999999999985,0.20000000000000018,-0.1960000000000015,0
1.8260000000000005,-1.676,940.0,-0.6960000000000015,0.20000000000000018,0.8039999999999985,0
0.8260000000000005,0.324,924.0,0.3039999999999985,-0.7999999999999998,0.8039999999999985,0
-2.1739999999999995,2.324,931.0,1.3039999999999985,-0.7999999999999998,0.8039999999999985,0
-12.174,0.324,934.0,2.3039999999999985,0.20000000000000018,-0.1960000000000015,0
-0.1739999999999995,2.324,926.0,-0.6960000000000015,-0.7999999999999998,0.8039999999999985,0
-2.1739999999999995,0.324,935.0,-0.6960000000000015,0.20000000000000018,1.8039999999999985,0
2.8260000000000005,5.324,932.0,-0.6960000000000015,0.20000000000000018,0.8039999999999985,0
-7.1739999999999995,2.324,935.0,-0.6960000000000015,-0.7999999999999998,-0.1960000000000015,0
-1.1739999999999995,-3.676,934.0,0.3039999999999985,-0.7999999999999998,0.8039999999999985,0
-4.1739999999999995,-0.6759999999999999,924.0,1.3039999999999985,-0.7999999999999998,-1.1960000000000015,0
-10.174,-1.676,913.0,0.3039999999999985,-0.7999999999999998,0.8039999999999985,0
-3.1739999999999995,-1.676,932.0,1.3039999999999985,1.2000000000000002,-1.1960000000000015,0
-1.1739999999999995,-3.676,936.0,-1.6960000000000015,-0.7999999999999998,-0.1960000000000015,0
-0.1739999999999995,1.324,937.0,-0.6960000000000015,0.20000000000000018,-0.1960000000000015,0
-1.1739999999999995,2.324,927.0,-0.6960000000000015,2.2,-1.1960000000000015,0
-3.1739999999999995,-1.676,933.0,0.3039999999999985,-0.7999999999999998,-0.1960000000000015,0
-4.1739999999999995,4.324,930.0,-0.6960000000000015,1.2000000000000002,-0.1960000000000015,0
-3.1739999999999995,0.324,927.0,0.3039999999999985,-1.7999999999999998,1.8039999999999985,0
2.8260000000000005,-4.676,927.0,-1.6960000000000015,-0.7999999999999998,-0.1960000000000015,0
-2.1739999999999995,5.324,931.0,1.3039999999999985,2.2,-0.1960000000000015,0
-2.1739999999999995,1.324,933.0,-1.6960000000000015,1.2000000000000002,-0.1960000000000015,0
-2.1739999999999995,3.324,936.0,-0.6960000000000015,-0.7999999999999998,-0.1960000000000015,0
-3.1739999999999995,5.324,924.0,0.3039999999999985,-0.7999999999999998,0.8039999999999985,0
-7.1739999999999995,0.324,925.0,-0.6960000000000015,0.20000000000000018,-0.1960000000000015,0
-4.1739999999999995,8.324,929.0,0.3039999999999985,-1.7999999999999998,0.8039999999999985,0
0.8260000000000005,3.324,921.0,0.3039999999999985,-3.8,-0.1960000000000015,0
-1.1739999999999995,6.324,929.0,-0.6960000000000015,2.2,0.8039999999999985,0
0.8260000000000005,3.324,937.0,0.3039999999999985,-0.7999999999999998,-0.1960000000000015,0
-3.1739999999999995,0.324,938.0,0.3039999999999985,0.20000000000000018,-0.1960000000000015,0
0.8260000000000005,4.324,941.0,2.3039999999999985,2.2,-2.1960000000000015,0
-5.1739999999999995,6.324,926.0,0.3039999999999985,0.20000000000000018,-0.1960000000000015,0
0.8260000000000005,-0.6759999999999999,929.0,0.3039999999999985,-0.7999999999999998,-0.1960000000000015,0
-8.174,0.324,934.0,-0.6960000000000015,4.2,-0.1960000000000015,0
2.8260000000000005,0.324,931.0,0.3039999999999985,2.2,0.8039999999999985,0
-5.1739999999999995,1.324,925.0,-2.6960000000000015,-2.8,-0.1960000000000015,0
-3.1739999999999995,0.324,926.0,-0.6960000000000015,0.20000000000000018,0.8039999999999985,0
2.8260000000000005,-2.676,931.0,0.3039999999999985,-0.7999999999999998,0.8039999999999985,0
3.8260000000000005,-5.676,930.0,-1.6960000000000015,0.20000000000000018,-1.1960000000000015,0
-6.1739999999999995,0.324,936.0,-0.6960000000000015,-0.7999999999999998,0.8039999999999985,0
-5.1739999999999995,3.324,930.0,-0.6960000000000015,0.20000000000000018,-2.1960000000000015,0
4.8260000000000005,4.324,927.0,0.3039999999999985,2.2,-0.1960000000000015,0
0.8260000000000005,-2.676,925.0,2.3039999999999985,-1.7999999999999998,-0.1960000000000015,0
-0.1739999999999995,-5.676,930.0,3.3039999999999985,1.2000000000000002,1.8039999999999985,0
428.826,-370.676,1097.0,-970.696,2506.2,524.804,0
1196.826,-229.676,467.0,236.304,-2352.8,200.804,0
-59.174,18.324,1074.0,-66.696,200.2,-7.1960000000000015,0
-0.1739999999999995,1.324,924.0,0.3039999999999985,-0.7999999999999998,-1.1960000000000015,0
-0.1739999999999995,0.324,936.0,1.3039999999999985,-1.7999999999999998,-0.1960000000000015,0
-0.1739999999999995,4.324,926.0,1.3039999999999985,-0.7999999999999998,-0.1960000000000015,0
3.8260000000000005,-0.6759999999999999,930.0,1.3039999999999985,0.20000000000000018,-1.1960000000000015,0
-3.1739999999999995,3.324,930.0,-0.6960000000000015,-0.7999999999999998,-2.1960000000000015,0
-1.1739999999999995,-3.676,929.0,0.3039999999999985,1.2000000000000002,0.8039999999999985,0
-4.1739999999999995,1.324,926.0,0.3039999999999985,1.2000000000000002,-1.1960000000000015,0
-0.1739999999999995,-6.676,910.0,-0.6960000000000015,-1.7999999999999998,2.8039999999999985,0
1.8260000000000005,3.324,923.0,-0.6960000000000015,2.2,1.8039999999999985,0
6.8260000000000005,1.324,924.0,1.3039999999999985,1.2000000000000002,-0.1960000000000015,0
-1.1739999999999995,0.324,920.0,1.3039999999999985,-1.7999999999999998,-0.1960000000000015,0
-1.1739999999999995,-10.676,939.0,0.3039999999999985,0.20000000000000018,-1.1960000000000015,0
-7.1739999999999995,0.324,927.0,0.3039999999999985,-1.7999999999999998,-1.1960000000000015,0
0.8260000000000005,2.324,930.0,0.3039999999999985,0.20000000000000018,-0.1960000000000015,0
2.8260000000000005,-0.6759999999999999,936.0,0.3039999999999985,1.2000000000000002,-0.1960000000000015,0
-1.1739999999999995,0.324,935.0,0.3039999999999985,-1.7999999999999998,-0.1960000000000015,0
1.8260000000000005,-3.676,923.0,-0.6960000000000015,0.20000000000000018,-2.1960000000000015,0
-0.1739999999999995,0.324,919.0,0.3039999999999985,-0.7999999999999998,-1.1960000000000015,0
-8.174,1.324,932.0,2.3039999999999985,-0.7999999999999998,-1.1960000000000015,0
-1.1739999999999995,0.324,923.0,1.3039999999999985,2.2,-1.1960000000000015,0
-2.1739999999999995,0.324,931.0,-0.6960000000000015,-0.7999999999999998,0.8039999999999985,0
0.8260000000000005,0.324,928.0,-0.6960000000000015,1.2000000000000002,-0.1960000000000015,0
-3.1739999999999995,-0.6759999999999999,931.0,1.3039999999999985,0.20000000000000018,-2.1960000000000015,0
3.8260000000000005,-2.676,923.0,0.3039999999999985,-0.7999999999999998,-0.1960000000000015,0
-3.1739999999999995,2.324,930.0,0.3039999999999985,-0.7999999999999998,-2.1960000000000015,0
0.8260000000000005,-0.6759999999999999,931.0,0.3039999999999985,2.2,-0.1960000000000015,0
-540.174,-129.676,1893.0,-386.696,-336.8,-386.196,0
500.826,-997.676,397.0,834.304,-779.8,69.804,0
-235.174,-53.676,1067.0,193.304,-218.8,487.804,0
-44.174,-181.676,925.0,405.304,14.2,-47.196,0
0.8260000000000005,0.324,917.0,-0.6960000000000015,1.2000000000000002,-0.1960000000000015,0
0.8260000000000005,-2.676,927.0,-0.6960000000000015,0.20000000000000018,-0.1960000000000015,0
-3.1739999999999995,-2.676,933.0,0.3039999999999985,1.2000000000000002,-0.1960000000000015,0
1.8260000000000005,0.324,928.0,1.3039999999999985,0.20000000000000018,0.8039999999999985,0
-10.174,-0.6759999999999999,930.0,0.3039999999999985,1.2000000000000002,-0.1960000000000015,0
-7.1739999999999995,0.324,933.0,0.3039999999999985,-1.7999999999999998,-0.1960000000000015,0
-2.1739999999999995,-0.6759999999999999,937.0,0.3039999999999985,-0.7999999999999998,-0.1960000000000015,0
-4.1739999999999995,2.324,924.0,0.3039999999999985,-0.7999999999999998,-0.1960000000000015,0
-0.1739999999999995,-7.676,951.0,4.3039999999999985,1.2000000000000002,-1.1960000000000015,0
-0.1739999999999995,-1.676,923.0,1.3039999999999985,0.20000000000000018,-1.1960000000000015,0
-0.1739999999999995,-3.676,927.0,0.3039999999999985,3.2,-0.1960000000000015,0
-3.1739999999999995,-1.676,929.0,-2.6960000000000015,-1.7999999999999998,-0.1960000000000015,0
-1.1739999999999995,3.324,931.0,0.3039999999999985,2.2,0.8039999999999985,0
0.8260000000000005,3.324,924.0,0.3039999999999985,1.2000000000000002,-2.1960000000000015,0
2.8260000000000005,1.324,926.0,-1.6960000000000015,1.2000000000000002,-0.1960000000000015,0
-3.1739999999999995,4.324,925.0,-0.6960000000000015,-1.7999999999999998,-2.1960000000000015,0
-0.1739999999999995,4.324,934.0,-0.6960000000000015,1.2000000000000002,-1.1960000000000015,0
5.8260000000000005,-0.6759999999999999,934.0,0.3039999999999985,0.20000000000000018,0.8039999999999985,0
-4.1739999999999995,1.324,929.0,0.3039999999999985,0.20000000000000018,-0.1960000000000015,0
1.8260000000000005,0.324,919.0,-0.6960000000000015,-0.7999999999999998,-1.1960000000000015,0
-0.1739999999999995,0.324,928.0,1.3039999999999985,-0.7999999999999998,-0.1960000000000015,0
0.8260000000000005,3.324,924.0,2.3039999999999985,0.20000000000000018,-1.1960000000000015,0
3.8260000000000005,0.324,929.0,-0.6960000000000015,0.20000000000000018,-0.1960000000000015,0
-2.1739999999999995,0.324,929.0,-0.6960000000000015,1.2000000000000002,-0.1960000000000015,0
-3.1739999999999995,0.324,935.0,1.3039999999999985,2.2,-0.1960000000000015,0
1.8260000000000005,0.324,916.0,1.3039999999999985,-1.7999999999999998,-0.1960000000000015,0
-0.1739999999999995,-1.676,930.0,-0.6960000000000015,0.20000000000000018,-2.1960000000000015,0
1.8260000000000005,2.324,929.0,-0.6960000000000015,-0.7999999999999998,0.8039999999999985,0
-0.1739999999999995,-0.6759999999999999,934.0,0.3039999999999985,-0.7999999999999998,-1.1960000000000015,0
-3.1739999999999995,0.324,931.0,-0.6960000000000015,1.2000000000000002,0.8039999999999985,0
70.826,1.324,983.0,3.3039999999999985,4.2,63.804,0
0.8260000000000005,-3.676,928.0,-0.6960000000000015,-0.7999999999999998,0.8039999999999985,0
-0.1739999999999995,-0.6759999999999999,923.0,-1.6960000000000015,0.20000000000000018,0.8039999999999985,0
-2.1739999999999995,-2.676,927.0,0.3039999999999985,-0.7999999999999998,-0.1960000000000015,0
3.8260000000000005,1.324,921.0,0.3039999999999985,-0.7999999999999998,-0.1960000000000015,0
-3.1739999999999995,0.324,920.0,-0.6960000000000015,0.20000000000000018,-1.1960000000000015,0
-1.1739999999999995,0.324,936.0,-0.6960000000000015,-1.7999999999999998,-1.1960000000000015,0
-0.1739999999999995,0.324,929.0,1.3039999999999985,-1.7999999999999998,-0.1960000000000015,0
-1.1739999999999995,2.324,921.0,-0.6960000000000015,0.20000000000000018,-2.1960000000000015,0
-1.1739999999999995,1.324,924.0,0.3039999999999985,0.20000000000000018,0.8039999999999985,0
-1.1739999999999995,0.324,930.0,1.3039999999999985,0.20000000000000018,-1.1960000000000015,0
-0.1739999999999995,1.324,931.0,0.3039999999999985,1.2000000000000002,-0.1960000000000015,0
2.8260000000000005,0.324,922.0,-0.6960000000000015,0.20000000000000018,-0.1960000000000015,0
-3.1739999999999995,1.324,934.0,2.3039999999999985,2.2,-0.1960000000000015,0
-3.1739999999999995,2.324,932.0,1.3039999999999985,0.20000000000000018,-1.1960000000000015,0
5.8260000000000005,4.324,954.0,3.3039999999999985,4.2,-0.1960000000000015,0
6.8260000000000005,-1.676,931.0,1.3039999999999985,3.2,-0.1960000000000015,0
-4.1739999999999995,0.324,918.0,1.3039999999999985,-0.7999999999999998,0.8039999999999985,0
-7.1739999999999995,0.324,938.0,0.3039999999999985,0.20000000000000018,-0.1960000000000015,0
5.8260000000000005,4.324,921.0,-0.6960000000000015,-1.7999999999999998,-1.1960000000000015,0
-4.1739999999999995,5.324,939.0,3.3039999999999985,1.2000000000000002,1.8039999999999985,0
0.8260000000000005,0.324,938.0,-1.6960000000000015,-4.8,0.8039999999999985,0
1.8260000000000005,0.324,926.0,0.3039999999999985,0.20000000000000018,-0.1960000000000015,0
2.8260000000000005,7.324,951.0,0.3039999999999985,5.2,-0.1960000000000015,0
0.8260000000000005,0.324,934.0,0.3039999999999985,0.20000000000000018,0.8039999999999985,0
-1.1739999999999995,-3.676,930.0,0.3039999999999985,-1.7999999999999998,-0.1960000000000015,0
-4.1739999999999995,2.324,929.0,0.3039999999999985,-0.7999999999999998,-0.1960000000000015,0
-2.1739999999999995,-3.676,937.0,1.3039999999999985,1.2000000000000002,0.8039999999999985,0
-1.1739999999999995,-2.676,926.0,-0.6960000000000015,-1.7999999999999998,-2.1960000000000015,0
-2.1739999999999995,-3.676,923.0,0.3039999999999985,1.2000000000000002,-1.1960000000000015,0
1.8260000000000005,1.324,929.0,-0.6960000000000015,0.20000000000000018,-0.1960000000000015,0
-0.1739999999999995,0.324,920.0,-1.6960000000000015,1.2000000000000002,-0.1960000000000015,0
-0.1739999999999995,0.324,927.0,0.3039999999999985,-0.7999999999999998,-1.1960000000000015,0
-0.1739999999999995,3.324,930.0,1.3039999999999985,0.20000000000000018,-0.1960000000000015,0
-3.1739999999999995,0.324,931.0,0.3039999999999985,0.20000000000000018,-0.1960000000000015,0
-3.1739999999999995,-4.676,927.0,-0.6960000000000015,-2.8,-0.1960000000000015,0
-1.1739999999999995,10.324,964.0,-12.696000000000002,-16.8,-0.1960000000000015,0
2.8260000000000005,4.324,928.0,-0.6960000000000015,-0.7999999999999998,-0.1960000000000015,0
-1.1739999999999995,-1.676,927.0,1.3039999999999985,1.2000000000000002,0.8039999999999985,0
-0.1739999999999995,-2.676,931.0,-0.6960000000000015,0.20000000000000018,-1.1960000000000015,0
5.8260000000000005,-2.676,937.0,1.3039999999999985,0.20000000000000018,-0.1960000000000015,0
-0.1739999999999995,1.324,928.0,-0.6960000000000015,1.2000000000000002,-0.1960000000000015,0
-2.1739999999999995,0.324,931.0,2.3039999999999985,2.2,-0.1960000000000015,0
-1.1739999999999995,0.324,923.0,0.3039999999999985,-0.7999999999999998,0.8039999999999985,0
-6.1739999999999995,5.324,937.0,-0.6960000000000015,0.20000000000000018,0.8039999999999985,0
0.8260000000000005,-2.676,910.0,-12.696000000000002,-16.8,0.8039999999999985,0
-2.1739999999999995,-0.6759999999999999,927.0,2.3039999999999985,-0.7999999999999998,-1.1960000000000015,0
-3.1739999999999995,-0.6759999999999999,933.0,0.3039999999999985,-0.7999999999999998,-0.1960000000000015,0
-1.1739999999999995,0.324,933.0,-0.6960000000000015,0.20000000000000018,-0.1960000000000015,0
0.8260000000000005,2.324,935.0,1.3039999999999985,0.20000000000000018,-0.1960000000000015,0
0.8260000000000005,-5.676,929.0,-0.6960000000000015,-0.7999999999999998,-2.1960000000000015,0
-14.174,-1.676,911.0,-2.6960000000000015,-3.8,-1.1960000000000015,0
0.8260000000000005,-1.676,940.0,-1.6960000000000015,0.20000000000000018,-0.1960000000000015,0
-2.1739999999999995,2.324,922.0,0.3039999999999985,0.20000000000000018,-0.1960000000000015,0
-0.1739999999999995,2.324,930.0,1.3039999999999985,1.2000000000000002,-1.1960000000000015,0
-2.1739999999999995,-4.676,928.0,0.3039999999999985,1.2000000000000002,-2.1960000000000015,0
-7.1739999999999995,0.324,929.0,-0.6960000000000015,-0.7999999999999998,0.8039999999999985,0
-4.1739999999999995,0.324,925.0,0.3039999999999985,0.20000000000000018,-0.1960000000000015,0
0.8260000000000005,1.324,935.0,1.3039999999999985,0.20000000000000018,0.8039999999999985,0
3.8260000000000005,2.324,942.0,-0.6960000000000015,0.20000000000000018,-0.1960000000000015,0
0.8260000000000005,7.324,925.0,0.3039999999999985,-0.7999999999999998,-1.1960000000000015,0
-3.1739999999999995,-0.6759999999999999,935.0,0.3039999999999985,2.2,-1.1960000000000015,0
-3.1739999999999995,0.324,923.0,-0.6960000000000015,0.20000000000000018,1.8039999999999985,0
-4.1739999999999995,-5.676,933.0,-0.6960000000000015,0.20000000000000018,1.8039999999999985,0
0.8260000000000005,-0.6759999999999999,927.0,1.3039999999999985,-0.7999999999999998,-0.1960000000000015,0
-0.1739999999999995,0.324,928.0,-0.6960000000000015,-0.7999999999999998,-0.1960000000000015,0
-3.1739999999999995,-2.676,927.0,0.3039999999999985,-0.7999999999999998,-1.1960000000000015,0
-1.1739999999999995,6.324,929.0,-1.6960000000000015,-1.7999999999999998,-1.1960000000000015,0
0.8260000000000005,4.324,929.0,-0.6960000000000015,-0.7999999999999998,-1.1960000000000015,0
-2.1739999999999995,0.324,933.0,1.3039999999999985,-0.7999999999999998,-0.1960000000000015,0
-2.1739999999999995,0.324,924.0,0.3039999999999985,-0.7999999999999998,-1.1960000000000015,0
-3.1739999999999995,0.324,929.0,-2.6960000000000015,-2.8,-1.1960000000000015,0
0.8260000000000005,0.324,921.0,-3.6960000000000015,-4.8,-0.1960000000000015,0
2.8260000000000005,0.324,941.0,1.3039999999999985,0.20000000000000018,-0.1960000000000015,0
-4.1739999999999995,0.324,932.0,1.3039999999999985,-0.7999999999999998,-0.1960000000000015,0
-2.1739999999999995,0.324,933.0,1.3039999999999985,2.2,-3.1960000000000015,0
-4.1739999999999995,-1.676,930.0,-0.6960000000000015,-1.7999999999999998,-0.1960000000000015,0
-5.1739999999999995,-4.676,935.0,-0.6960000000000015,0.20000000000000018,0.8039999999999985,0
-2.1739999999999995,-0.6759999999999999,929.0,-0.6960000000000015,-0.7999999999999998,-0.1960000000000015,0
-5.1739999999999995,-6.676,927.0,0.3039999999999985,-0.7999999999999998,0.8039999999999985,0
-4.1739999999999995,-2.676,922.0,1.3039999999999985,-0.7999999999999998,-0.1960000000000015,0
-3.1739999999999995,-0.6759999999999999,928.0,-0.6960000000000015,-0.7999999999999998,-0.1960000000000015,0
3.8260000000000005,-2.676,926.0,0.3039999999999985,1.2000000000000002,-0.1960000000000015,0
3.8260000000000005,-1.676,924.0,0.3039999999999985,2.2,-0.1960000000000015,0
1.8260000000000005,-0.6759999999999999,921.0,1.3039999999999985,1.2000000000000002,-2.1960000000000015,0
2.8260000000000005,5.324,928.0,0.3039999999999985,0.20000000000000018,-1.1960000000000015,0
-2.1739999999999995,-3.676,925.0,0.3039999999999985,-0.7999999999999998,-0.1960000000000015,0
1.8260000000000005,1.324,934.0,0.3039999999999985,2.2,-0.1960000000000015,0
2.8260000000000005,2.324,939.0,0.3039999999999985,-0.7999999999999998,-0.1960000000000015,0
-1.1739999999999995,0.324,926.0,0.3039999999999985,1.2000000000000002,0.8039999999999985,0
-4.1739999999999995,3.324,925.0,-0.6960000000000015,1.2000000000000002,-2.1960000000000015,0
-4.1739999999999995,3.324,932.0,0.3039999999999985,-1.7999999999999998,-0.1960000000000015,0
-4.1739999999999995,-2.676,921.0,0.3039999999999985,-0.7999999999999998,0.8039999999999985,0
-6.1739999999999995,-2.676,934.0,-0.6960000000000015,-0.7999999999999998,0.8039999999999985,0
-1.1739999999999995,-0.6759999999999999,931.0,0.3039999999999985,2.2,-1.1960000000000015,0
-7.1739999999999995,1.324,929.0,0.3039999999999985,-0.7999999999999998,-0.1960000000000015,0
0.8260000000000005,-1.676,937.0,-0.6960000000000015,0.20000000000000018,-0.1960000000000015,0
-3.1739999999999995,-3.676,927.0,-0.6960000000000015,-0.7999999999999998,-1.1960000000000015,0
-2.1739999999999995,4.324,944.0,-1.6960000000000015,-0.7999999999999998,-1.1960000000000015,0
-3.1739999999999995,0.324,922.0,-3.6960000000000015,-3.8,0.8039999999999985,0
-4.1739999999999995,-0.6759999999999999,931.0,2.3039999999999985,-0.7999999999999998,-1.1960000000000015,0
-4.1739999999999995,2.324,928.0,-0.6960000000000015,-0.7999999999999998,1.8039999999999985,0
-6.1739999999999995,0.324,927.0,-1.6960000000000015,-0.7999999999999998,-0.1960000000000015,0
-8.174,2.324,927.0,0.3039999999999985,-0.7999999999999998,-0.1960000000000015,0
-3.1739999999999995,5.324,931.0,-1.6960000000000015,-0.7999999999999998,-0.1960000000000015,0
0.8260000000000005,3.324,933.0,0.3039999999999985,-0.7999999999999998,-1.1960000000000015,0
0.8260000000000005,0.324,925.0,-1.6960000000000015,-0.7999999999999998,-0.1960000000000015,0
0.8260000000000005,1.324,930.0,-0.6960000000000015,-0.7999999999999998,-0.1960000000000015,0
-7.1739999999999995,0.324,927.0,-3.6960000000000015,-2.8,-1.1960000000000015,0
-9.174,1.324,915.0,0.3039999999999985,1.2000000000000002,-1.1960000000000015,0
-7.1739999999999995,1.324,937.0,-0.6960000000000015,0.20000000000000018,0.8039999999999985,0
-1.1739999999999995,-3.676,934.0,-0.6960000000000015,-0.7999999999999998,-1.1960000000000015,0
-3.1739999999999995,2.324,929.0,-0.6960000000000015,2.2,0.8039999999999985,0
-6.1739999999999995,-0.6759999999999999,934.0,1.3039999999999985,0.20000000000000018,-0.1960000000000015,0
-4.1739999999999995,5.324,940.0,0.3039999999999985,-0.7999999999999998,0.8039999999999985,0
-3.1739999999999995,1.324,927.0,-1.6960000000000015,2.2,-0.1960000000000015,0
2.8260000000000005,-2.676,926.0,1.3039999999999985,0.20000000000000018,-0.1960000000000015,0
0.8260000000000005,-3.676,928.0,-0.6960000000000015,1.2000000000000002,-1.1960000000000015,0
-5.1739999999999995,0.324,932.0,-0.6960000000000015,1.2000000000000002,0.8039999999999985,0
-6.1739999999999995,-4.676,927.0,1.3039999999999985,-1.7999999999999998,-0.1960000000000015,0
0.8260000000000005,-5.676,935.0,1.3039999999999985,0.20000000000000018,-0.1960000000000015,0
-1.1739999999999995,-2.676,944.0,1.3039999999999985,1.2000000000000002,-0.1960000000000015,0
-4.1739999999999995,3.324,933.0,0.3039999999999985,2.2,-0.1960000000000015,0
2.8260000000000005,1.324,932.0,1.3039999999999985,1.2000000000000002,-0.1960000000000015,0
-0.1739999999999995,-0.6759999999999999,920.0,0.3039999999999985,-0.7999999999999998,1.8039999999999985,0
2.8260000000000005,-1.676,919.0,1.3039999999999985,0.20000000000000018,-0.1960000000000015,0
0.8260000000000005,6.324,934.0,1.3039999999999985,-1.7999999999999998,0.8039999999999985,0
-1.1739999999999995,6.324,927.0,-0.6960000000000015,-0.7999999999999998,-0.1960000000000015,0
-3.1739999999999995,0.324,944.0,0.3039999999999985,1.2000000000000002,-1.1960000000000015,0
-4.1739999999999995,-5.676,919.0,2.3039999999999985,0.20000000000000018,0.8039999999999985,0
-5.1739999999999995,0.324,936.0,1.3039999999999985,0.20000000000000018,-0.1960000000000015,0
-0.1739999999999995,2.324,928.0,0.3039999999999985,1.2000000000000002,-0.1960000000000015,0
-1.1739999999999995,-4.676,937.0,-0.6960000000000015,0.20000000000000018,-1.1960000000000015,0
-0.1739999999999995,-4.676,926.0,2.3039999999999985,0.20000000000000018,-1.1960000000000015,0
1.8260000000000005,2.324,930.0,0.3039999999999985,-0.7999999999999998,-2.1960000000000015,0
-3.1739999999999995,5.324,911.0,0.3039999999999985,-1.7999999999999998,0.8039999999999985,0
-4.1739999999999995,-2.676,921.0,-0.6960000000000015,0.20000000000000018,-0.1960000000000015,0
-2.1739999999999995,2.324,932.0,1.3039999999999985,0.20000000000000018,-0.1960000000000015,0
-6.1739999999999995,-1.676,933.0,-0.6960000000000015,0.20000000000000018,-0.1960000000000015,0
-5.1739999999999995,-1.676,928.0,-0.6960000000000015,-0.7999999999999998,0.8039999999999985,0
-4.1739999999999995,5.324,925.0,0.3039999999999985,1.2000000000000002,-0.1960000000000015,0
-0.1739999999999995,-0.6759999999999999,930.0,-0.6960000000000015,0.20000000000000018,-1.1960000000000015,0
-4.1739999999999995,2.324,937.0,2.3039999999999985,1.2000000000000002,-2.1960000000000015,0
2.8260000000000005,0.324,912.0,-0.6960000000000015,-3.8,0.8039999999999985,0
-7.1739999999999995,-2.676,928.0,1.3039999999999985,0.20000000000000018,-0.1960000000000015,0
1.8260000000000005,1.324,932.0,2.3039999999999985,0.20000000000000018,-0.1960000000000015,0
2.8260000000000005,-0.6759999999999999,935.0,0.3039999999999985,1.2000000000000002,-0.1960000000000015,0
0.8260000000000005,-2.676,929.0,0.3039999999999985,0.20000000000000018,-1.1960000000000015,0
-2.1739999999999995,1.324,923.0,-1.6960000000000015,-1.7999999999999998,0.8039999999999985,0
0.8260000000000005,1.324,932.0,-0.6960000000000015,1.2000000000000002,0.8039999999999985,0
-5.1739999999999995,2.324,932.0,0.3039999999999985,-2.8,-2.1960000000000015,0
6.8260000000000005,3.324,939.0,0.3039999999999985,-0.7999999999999998,-0.1960000000000015,0
2.8260000000000005,-0.6759999999999999,925.0,-0.6960000000000015,-0.7999999999999998,-0.1960000000000015,0
-2.1739999999999995,3.324,930.0,-0.6960000000000015,0.20000000000000018,-0.1960000000000015,0
-0.1739999999999995,1.324,921.0,0.3039999999999985,-2.8,-1.1960000000000015,0
-4.1739999999999995,0.324,927.0,1.3039999999999985,-0.7999999999999998,0.8039999999999985,0
0.8260000000000005,0.324,919.0,-1.6960000000000015,1.2000000000000002,0.8039999999999985,0
3.8260000000000005,-0.6759999999999999,925.0,1.3039999999999985,-0.7999999999999998,-0.1960000000000015,0
-2.1739999999999995,7.324,928.0,0.3039999999999985,1.2000000000000002,0.8039999999999985,0
-3.1739999999999995,0.324,924.0,1.3039999999999985,-1.7999999999999998,1.8039999999999985,0
3.8260000000000005,2.324,928.0,0.3039999999999985,0.20000000000000018,-0.1960000000000015,0
-7.1739999999999995,1.324,933.0,-1.6960000000000015,-1.7999999999999998,0.8039999999999985,0
-1.1739999999999995,1.324,923.0,-0.6960000000000015,-1.7999999999999998,-1.1960000000000015,0
-8.174,2.324,931.0,0.3039999999999985,-0.7999999999999998,-0.1960000000000015,0
2.8260000000000005,-1.676,933.0,-0.6960000000000015,1.2000000000000002,0.8039999999999985,0
-5.1739999999999995,5.324,930.0,0.3039999999999985,-0.7999999999999998,-1.1960000000000015,0
-1.1739999999999995,-6.676,927.0,1.3039999999999985,-0.7999999999999998,-1.1960000000000015,0
-2.1739999999999995,1.324,925.0,-0.6960000000000015,0.20000000000000018,-0.1960000000000015,0
-6.1739999999999995,0.324,931.0,-0.6960000000000015,0.20000000000000018,-0.1960000000000015,0
-1.1739999999999995,-7.676,930.0,0.3039999999999985,0.20000000000000018,-0.1960000000000015,0
-5.1739999999999995,-4.676,929.0,-0.6960000000000015,-1.7999999999999998,0.8039999999999985,0
-1.1739999999999995,0.324,938.0,0.3039999999999985,3.2,0.8039999999999985,0
-0.1739999999999995,-3.676,936.0,-1.6960000000000015,-0.7999999999999998,0.8039999999999985,0
1.8260000000000005,-1.676,927.0,0.3039999999999985,-1.7999999999999998,0.8039999999999985,0
-4.1739999999999995,0.324,927.0,0.3039999999999985,1.2000000000000002,-0.1960000000000015,0
-0.1739999999999995,4.324,936.0,-0.6960000000000015,0.20000000000000018,0.8039999999999985,0
-0.1739999999999995,0.324,932.0,0.3039999999999985,2.2,0.8039999999999985,0
-0.1739999999999995,2.324,927.0,0.3039999999999985,-0.7999999999999998,-0.1960000000000015,0
-1.1739999999999995,-3.676,922.0,-0.6960000000000015,-0.7999999999999998,0.8039999999999985,0
0.8260000000000005,-3.676,937.0,1.3039999999999985,0.20000000000000018,1.8039999999999985,0
-1.1739999999999995,-1.676,926.0,-0.6960000000000015,-1.7999999999999998,-0.1960000000000015,0
3.8260000000000005,-0.6759999999999999,931.0,0.3039999999999985,0.20000000000000018,-0.1960000000000015,0
-1.1739999999999995,0.324,927.0,1.3039999999999985,0.20000000000000018,-0.1960000000000015,0
-5.1739999999999995,-1.676,930.0,1.3039999999999985,2.2,-0.1960000000000015,0
-1.1739999999999995,2.324,926.0,4.3039999999999985,0.20000000000000018,-1.1960000000000015,0
-0.1739999999999995,3.324,934.0,-1.6960000000000015,-0.7999999999999998,-0.1960000000000015,0
-3.1739999999999995,-4.676,926.0,1.3039999999999985,-0.7999999999999998,-0.1960000000000015,0
-1.1739999999999995,-6.676,926.0,3.3039999999999985,1.2000000000000002,-1.1960000000000015,0
-0.1739999999999995,-2.676,922.0,1.3039999999999985,-0.7999999999999998,-0.1960000000000015,0
1.8260000000000005,2.324,926.0,-0.6960000000000015,0.20000000000000018,-1.1960000000000015,0
-5.1739999999999995,2.324,919.0,-0.6960000000000015,-0.7999999999999998,-0.1960000000000015,0
-0.1739999999999995,-0.6759999999999999,933.0,0.3039999999999985,-0.7999999999999998,0.8039999999999985,0
-3.1739999999999995,0.324,932.0,0.3039999999999985,0.20000000000000018,-0.1960000000000015,0
0.8260000000000005,2.324,926.0,-0.6960000000000015,-0.7999999999999998,-0.1960000000000015,0
-5.1739999999999995,-5.676,930.0,2.3039999999999985,-0.7999999999999998,-0.1960000000000015,0
1.8260000000000005,4.324,935.0,1.3039999999999985,-0.7999999999999998,-0.1960000000000015,0
-2.1739999999999995,2.324,929.0,-1.6960000000000015,-0.7999999999999998,1.8039999999999985,0
3.8260000000000005,-0.6759999999999999,918.0,-0.6960000000000015,-0.7999999999999998,-0.1960000000000015,0
-4.1739999999999995,0.324,922.0,-0.6960000000000015,0.20000000000000018,-0.1960000000000015,0
-1.1739999999999995,2.324,929.0,-0.6960000000000015,1.2000000000000002,-0.1960000000000015,0
1.8260000000000005,-0.6759999999999999,929.0,1.3039999999999985,-0.7999999999999998,-0.1960000000000015,0
-0.1739999999999995,5.324,931.0,-0.6960000000000015,-0.7999999999999998,-0.1960000000000015,0
2.8260000000000005,1.324,921.0,-0.6960000000000015,-0.7999999999999998,-0.1960000000000015,0
0.8260000000000005,1.324,930.0,1.3039999999999985,-1.7999999999999998,-0.1960000000000015,0
-3.1739999999999995,2.324,934.0,-1.6960000000000015,1.2000000000000002,-1.1960000000000015,0
1.8260000000000005,1.324,932.0,1.3039999999999985,0.20000000000000018,0.8039999999999985,0
2.8260000000000005,2.324,945.0,1.3039999999999985,-0.7999999999999998,0.8039999999999985,0
-0.1739999999999995,-2.676,925.0,2.3039999999999985,0.20000000000000018,-0.1960000000000015,0
-6.1739999999999995,2.324,926.0,0.3039999999999985,2.2,-1.1960000000000015,0
-3.1739999999999995,-2.676,917.0,0.3039999999999985,0.20000000000000018,-0.1960000000000015,0
-6.1739999999999995,3.324,934.0,-0.6960000000000015,0.20000000000000018,-1.1960000000000015,0
-1.1739999999999995,3.324,926.0,-3.6960000000000015,0.20000000000000018,-0.1960000000000015,0
-1.1739999999999995,0.324,926.0,1.3039999999999985,1.2000000000000002,0.8039999999999985,0
-3.1739999999999995,3.324,923.0,-1.6960000000000015,2.2,-0.1960000000000015,0
-21.174,-112.676,980.0,60.304,87.2,117.804,0
604.826,-156.676,656.0,-617.696,-1627.8,357.804,0
871.826,-359.676,-373.0,142.304,2506.2,-19.196,0
-551.174,-746.676,242.0,-22.696,1036.2,0.8039999999999985,0
93.826,-877.676,375.0,-2259.696,-68.8,-270.196,0
-64.174,-94.676,959.0,1106.304,-266.8,427.804,0
542.826,-917.676,0.0,1966.304,57.2,929.804,0
209.826,-456.676,-564.0,299.304,-25.8,-979.196,0
-19.174,-853.676,606.0,-252.696,703.2,176.804,0
-4.1739999999999995,0.324,929.0,1.3039999999999985,1.2000000000000002,0.8039999999999985,1
-3.1739999999999995,3.324,923.0,-1.6960000000000015,2.2,-0.1960000000000015,1
118.826,-33.676,915.0,-0.6960000000000015,0.20000000000000018,48.804,1
-8.174,-1.676,933.0,2.3039999999999985,0.20000000000000018,0.8039999999999985,1
-39.174,-1.676,1364.0,-36.696,129.2,1031.804,1
101.826,62.324,857.0,16.304,53.2,-1297.196,1
-21.174,-112.676,980.0,60.304,87.2,117.804,1
231.826,59.324,1041.0,-18.696,-61.8,1151.804,1
-25.174,288.324,1207.0,3.3039999999999985,2.2,-228.196,1
35.826,298.324,1109.0,-170.696,-91.8,195.804,1
9.826,-167.676,1106.0,-554.696,-1227.8,785.804,1
604.826,-156.676,656.0,-617.696,-1627.8,357.804,1
733.826,-431.676,384.0,-867.696,-2495.8,457.804,1
858.826,-459.676,-67.0,-875.696,-2495.8,-298.196,1
721.826,-408.676,-515.0,-280.696,-1380.8,139.804,1
624.826,-416.676,-786.0,-135.696,-702.8,-56.196,1
871.826,-359.676,-373.0,142.304,2506.2,-19.196,1
1049.826,-491.676,-26.0,-41.696,2506.2,645.804,1
700.826,-537.676,479.0,-423.696,2506.2,361.804,1
179.826,-612.676,570.0,-375.696,2428.2,515.804,1
-96.174,-613.676,729.0,-208.696,2506.2,194.804,1
-551.174,-746.676,242.0,-22.696,1036.2,0.8039999999999985,1
-494.174,-919.676,-112.0,-67.696,-2495.8,110.804,1
-182.174,-797.676,283.0,387.304,-726.8,-335.196,1
-406.174,-752.676,850.0,81.304,-584.8,-229.196,1
277.826,-369.676,959.0,-838.696,-522.8,-332.196,1
93.826,-877.676,375.0,-2259.696,-68.8,-270.196,1
311.826,-728.676,-297.0,-1705.696,-584.8,212.804,1
361.826,-557.676,-994.0,4.3039999999999985,-1.7999999999999998,114.804,1
-143.174,-1078.676,-604.0,1850.304,439.2,140.804,1
347.826,-820.676,646.0,2364.304,-329.8,159.804,1
-64.174,-94.676,959.0,1106.304,-266.8,427.804,1
-158.174,-463.676,1220.0,-1669.696,822.2,-218.196,1
294.826,-1338.676,132.0,-2478.696,618.2,-381.196,1
341.826,-815.676,-788.0,98.304,-739.8,-1251.196,1
257.826,-749.676,-614.0,1343.304,204.2,12.803999999999998,1
542.826,-917.676,0.0,1966.304,57.2,929.804,1
-96.174,-465.676,959.0,1828.304,-341.8,526.804,1
-127.174,50.324,1308.0,-275.696,-1224.8,255.804,1
-51.174,-703.676,975.0,-1961.696,269.2,-116.196,1
344.826,-1545.676,-295.0,-2097.696,740.2,232.804,1
209.826,-456.676,-564.0,299.304,-25.8,-979.196,1
294.826,-1443.676,-60.0,1962.304,1247.2,1172.804,1
83.826,-676.676,1531.0,817.304,-1155.8,342.804,1
-169.174,-242.676,541.0,79.304,-333.8,305.804,1
121.826,-938.676,845.0,-190.696,-569.8,-497.196,1
-19.174,-853.676,606.0,-252.696,703.2,176.804,1
-31.174,-813.676,719.0,-947.696,758.2,-9.196000000000002,1
-46.174,-861.676,500.0,-99.696,-512.8,-1300.196,1
234.826,-654.676,508.0,-60.696,-553.8,558.804,1
1947.826,-538.676,537.0,523.304,1814.2,1309.804,1
349.826,-898.676,516.0,590.304,365.2,-2481.196,1
-354.174,-1289.676,232.0,-997.696,134.2,2520.804,1
1947.826,-111.676,959.0,-194.696,-345.8,-138.196,1
-1946.174,-1944.676,442.0,847.304,5.2,-1566.196,1
1947.826,-1227.676,1252.0,1455.304,1839.2,2520.804,1
-1330.174,-1958.676,750.0,-172.696,-92.8,-2481.196,1
1947.826,-109.676,1762.0,2199.304,-73.8,2416.804,1
223.826,-485.676,891.0,-1098.696,975.2,-1187.196,1
73.826,-727.676,273.0,762.304,402.2,273.804,1
238.826,-677.676,646.0,1116.304,-1255.8,9.803999999999998,1
193.826,-686.676,839.0,388.304,357.2,74.804,1
110.826,-573.676,719.0,-68.696,265.2,167.804,1
297.826,-530.676,563.0,34.304,-290.8,-90.196,1
154.826,-493.676,598.0,21.304,104.2,-197.196,1
418.826,-569.676,684.0,-37.696,-441.8,234.804,1
320.826,-657.676,677.0,-85.696,-300.8,-180.196,1
429.826,-601.676,678.0,-28.696,-28.8,331.804,1
268.826,-604.676,620.0,67.304,79.2,220.804,1
268.826,-636.676,589.0,309.304,401.2,51.804,1
259.826,-480.676,797.0,128.304,324.2,351.804,1
87.826,-508.676,1267.0,-336.696,387.2,-193.196,1
29.826,-724.676,647.0,-83.696,-301.8,-149.196,1
-169.174,-706.676,817.0,428.304,1548.2,48.804,1
-286.174,-532.676,711.0,109.304,1168.2,139.804,1
-460.174,-452.676,704.0,-449.696,1150.2,575.804,1
-780.174,-401.676,583.0,-207.696,1858.2,269.804,1
-665.174,-342.676,41.0,-121.696,-336.8,199.804,1
-798.174,-731.676,294.0,-900.696,-2495.8,27.804,1
301.826,-957.676,861.0,-2478.696,-2495.8,-2201.196,1
67.826,-593.676,159.0,-93.696,-1542.8,-265.196,1
745.826,-821.676,242.0,-414.696,-589.8,-667.196,1
462.826,-578.676,190.0,90.304,1466.2,342.804,1
801.826,-685.676,60.0,178.304,-795.8,141.804,1
743.826,-680.676,101.0,-284.696,-871.8,-517.196,1
823.826,-640.676,58.0,122.304,383.2,-18.196,1
724.826,-569.676,208.0,190.304,2391.2,-392.196,1
321.826,-229.676,60.0,2523.304,2506.2,1847.804,1
-269.174,319.324,1697.0,-612.696,1209.2,-2220.196,1
1039.826,-239.676,861.0,56.304,-111.8,1.8039999999999985,1
-125.174,13.324,921.0,1.3039999999999985,-1.7999999999999998,-1.1960000000000015,1
-126.174,11.324,928.0,-0.6960000000000015,0.20000000000000018,-1.1960000000000015,1
-124.174,9.324,924.0,-0.6960000000000015,-0.7999999999999998,0.8039999999999985,1
-124.174,4.324,924.0,-0.6960000000000015,1.2000000000000002,0.8039999999999985,1
-130.174,8.324,916.0,-0.6960000000000015,-0.7999999999999998,0.8039999999999985,1
-126.174,5.324,931.0,2.3039999999999985,0.20000000000000018,0.8039999999999985,1
-123.174,15.324,927.0,2.3039999999999985,0.20000000000000018,-0.1960000000000015,1
-122.174,6.324,922.0,0.3039999999999985,-0.7999999999999998,-0.1960000000000015,1
-124.174,2.324,924.0,0.3039999999999985,0.20000000000000018,-1.1960000000000015,1
-128.174,4.324,930.0,-0.6960000000000015,-0.7999999999999998,-0.1960000000000015,1
-130.174,12.324,926.0,0.3039999999999985,2.2,0.8039999999999985,1
-126.174,11.324,924.0,0.3039999999999985,0.20000000000000018,0.8039999999999985,0
-129.174,8.324,926.0,-0.6960000000000015,-1.7999999999999998,0.8039999999999985,0
-117.174,13.324,918.0,1.3039999999999985,0.20000000000000018,0.8039999999999985,0
-176.174,74.324,350.0,29.304,93.2,-30.196,0
-26.174,-100.676,1157.0,-621.696,389.2,402.804,0
269.826,-411.676,1215.0,-1771.696,-1921.8,93.804,0
302.826,-773.676,74.0,-1313.696,1248.2,-161.196,0
506.826,-668.676,-218.0,243.304,-654.8,-236.196,0
-116.174,-584.676,525.0,555.304,-179.8,-271.196,0
299.826,-895.676,561.0,1228.304,2506.2,1397.804,0
661.826,-774.676,-206.0,-288.696,-1364.8,-543.196,0
31.826,-811.676,-195.0,-384.696,-1423.8,1107.804,0
114.826,-818.676,1243.0,-171.696,-149.8,-98.196,0
101.826,-142.676,1343.0,-1157.696,-842.8,-377.196,0
-1066.174,-1014.676,368.0,-48.696,-1575.8,167.804,0
74.826,24.324,1001.0,691.304,-572.8,351.804,1
27.826,65.324,861.0,-504.696,-93.8,253.804,1
269.826,-411.676,1215.0,-1771.696,-1921.8,93.804,1
184.826,-394.676,768.0,-1256.696,-521.8,740.804,1
400.826,-591.676,385.0,-1082.696,168.2,110.804,1
199.826,-837.676,300.0,-885.696,437.2,380.804,1
328.826,-903.676,225.0,-1476.696,177.2,-1308.196,1
302.826,-773.676,74.0,-1313.696,1248.2,-161.196,1
367.826,-907.676,22.0,199.304,173.2,-278.196,1
37.826,-1159.676,-347.0,-86.696,-603.8,485.804,1
503.826,-716.676,-229.0,-12.696000000000002,-2495.8,-354.196,1
805.826,-796.676,-258.0,191.304,-1656.8,-2152.196,1
506.826,-668.676,-218.0,243.304,-654.8,-236.196,1
865.826,-557.676,-52.0,621.304,1817.2,228.804,1
214.826,-1162.676,96.0,709.304,2506.2,719.804,1
529.826,-1435.676,382.0,1031.304,1736.2,255.804,1
-731.174,-1067.676,929.0,735.304,2415.2,1256.804,1
-116.174,-584.676,525.0,555.304,-179.8,-271.196,1
-90.174,-815.676,115.0,-957.696,-2495.8,250.804,1
652.826,-841.676,253.0,-866.696,-2495.8,-1098.196,1
522.826,-206.676,-2.0,-720.696,-2028.8,-309.196,1
808.826,-960.676,291.0,1404.304,2506.2,1336.804,1
299.826,-895.676,561.0,1228.304,2506.2,1397.804,1
-558.174,-914.676,246.0,-301.696,2199.2,852.804,1
-672.174,-688.676,-26.0,-506.696,-262.8,483.804,1
365.826,-647.676,335.0,-1446.696,-2495.8,-1539.196,1
526.826,-818.676,431.0,-966.696,-2495.8,-1815.196,1
661.826,-774.676,-206.0,-288.696,-1364.8,-543.196,1
771.826,-1071.676,-722.0,1260.304,730.2,1397.804,1
641.826,-677.676,170.0,189.304,2506.2,272.804,1
341.826,-695.676,28.0,-312.696,2506.2,-685.196,1
109.826,-1054.676,-19.0,-120.696,-911.8,-16.196,1
31.826,-811.676,-195.0,-384.696,-1423.8,1107.804,1
593.826,-580.676,-139.0,-1724.696,1297.2,-1516.196,1
-300.174,-1315.676,-838.0,605.304,248.2,2202.804,1
-230.174,-809.676,-364.0,-453.696,-374.8,-1518.196,1
21.826,-831.676,390.0,1806.304,292.2,299.804,1
114.826,-818.676,1243.0,-171.696,-149.8,-98.196,1
49.826,-1607.676,269.0,-696.696,490.2,598.804,1
-265.174,125.324,-973.0,-283.696,-102.8,383.804,1
-505.174,-1005.676,-222.0,640.304,-280.8,-243.196,1
-38.174,-566.676,948.0,2151.304,-878.8,77.804,1
101.826,-142.676,1343.0,-1157.696,-842.8,-377.196,1
426.826,-1047.676,507.0,-1614.696,1558.2,-26.196,1
-112.174,-1137.676,-764.0,-1469.696,564.2,252.804,1
117.826,-830.676,-196.0,989.304,-370.8,-408.196,1
-10.174,-1044.676,1352.0,1411.304,1782.2,-925.196,1
-1066.174,-1014.676,368.0,-48.696,-1575.8,167.804,1
651.826,-661.676,371.0,1273.304,-1441.8,1649.804,1
539.826,-912.676,3.0,-220.696,2506.2,-2481.196,1
173.826,-1999.676,129.0,378.304,90.2,2520.804,1
-2051.174,-1999.676,-764.0,-177.696,-39.8,-2481.196,1
1947.826,1811.324,581.0,2272.304,-982.8,-641.196,1
1486.826,-1999.676,1944.0,-1062.696,513.2,2520.804,1
-562.174,-1214.676,130.0,-951.696,768.2,-321.196,1
118.826,-596.676,-27.0,167.304,-743.8,-1148.196,1
156.826,-865.676,326.0,314.304,103.2,475.804,1
339.826,-773.676,444.0,105.304,-1022.8,-721.196,1
525.826,-614.676,505.0,953.304,563.2,173.804,1
329.826,-581.676,545.0,1194.304,314.2,-239.196,1
214.826,-500.676,840.0,319.304,633.2,-461.196,1
111.826,-388.676,784.0,378.304,217.2,-104.196,1
-65.174,-325.676,745.0,-202.696,91.2,357.804,1
76.826,-356.676,906.0,193.304,58.2,-46.196,1
25.826,-381.676,836.0,231.304,466.2,566.804,1
-129.174,-383.676,731.0,308.304,31.2,72.804,1
-121.174,-167.676,978.0,173.304,294.2,97.804,1
-99.174,-382.676,1059.0,-244.696,-57.8,120.804,1
-245.174,-233.676,982.0,-376.696,241.2,53.804,1
-132.174,-395.676,849.0,-249.696,-93.8,134.804,1
-154.174,-403.676,925.0,-409.696,-300.8,120.804,1
-323.174,-442.676,868.0,-52.696,2506.2,-156.196,1
-608.174,-292.676,508.0,-330.696,1523.2,-455.196,1
-879.174,-485.676,66.0,-1571.696,-1087.8,-228.196,1
-650.174,-708.676,350.0,-85.696,-2495.8,-741.196,1
657.826,-349.676,305.0,-705.696,-2495.8,-1347.196,1
835.826,-629.676,279.0,-1185.696,-2495.8,-1687.196,1
1008.826,-384.676,-799.0,38.304,-2495.8,-753.196,1
583.826,-457.676,-691.0,-535.696,-361.8,-311.196,1
445.826,-208.676,-1036.0,-176.696,-66.8,-124.196,1
575.826,-274.676,-854.0,-70.696,131.2,66.804,1
481.826,-270.676,-700.0,586.304,365.2,235.804,1
1005.826,-227.676,-549.0,-28.696,2506.2,813.804,1
809.826,-638.676,147.0,1674.304,2506.2,1271.804,1
53.826,-510.676,817.0,325.304,2506.2,-199.196,1
-189.174,-642.676,760.0,717.304,2240.2,-1.1960000000000015,1
-410.174,-288.676,577.0,763.304,386.2,419.804,1
-661.174,87.324,805.0,174.304,-162.8,377.804,1
-666.174,-34.676,744.0,56.304,390.2,68.804,1
-566.174,-146.676,571.0,-97.696,-361.8,97.804,1
-355.174,-117.676,742.0,-1009.696,-1810.8,242.804,1
-124.174,-134.676,877.0,-87.696,-1495.8,-50.196,1
-102.174,-116.676,195.0,1582.304,483.2,-74.196,1
10.826,-7.676,980.0,-1.6960000000000015,-5.8,-1.1960000000000015,1
218.826,33.324,1160.0,-8.696000000000002,38.2,240.804,1
17.826,70.324,1009.0,-705.696,-516.8,212.804,1
71.826,-159.676,1010.0,-877.696,79.2,-62.196,1
127.826,-339.676,709.0,-750.696,33.2,-216.196,1
156.826,-407.676,378.0,138.304,-374.8,56.804,1
563.826,-1999.676,1999.0,2254.304,-1124.8,-360.196,1
361.826,204.324,838.0,163.304,-142.8,56.804,1
64.826,-155.676,525.0,31.304,748.2,-265.196,0
15.826,-26.676,935.0,7.3039999999999985,16.2,83.804,0
-177.174,-495.676,592.0,-821.696,-517.8,-210.196,0
-31.174,-791.676,442.0,-59.696,-240.8,-160.196,0
-84.174,-875.676,432.0,-22.696,-125.8,-69.196,0
-20.174,-838.676,389.0,37.304,-54.8,-15.196000000000002,0
125.826,-675.676,719.0,607.304,-190.8,25.804,0
287.826,-90.676,799.0,648.304,-1150.8,216.804,1
235.826,178.324,1033.0,26.304,151.2,-291.196,1
64.826,-155.676,525.0,31.304,748.2,-265.196,1
155.826,13.324,745.0,-21.696,1748.2,-363.196,1
7.8260000000000005,0.324,936.0,12.303999999999998,-1.7999999999999998,2.8039999999999985,1
1.8260000000000005,0.324,928.0,0.3039999999999985,0.20000000000000018,-0.1960000000000015,1
-19.174,93.324,1028.0,38.304,94.2,88.804,1
15.826,-26.676,935.0,7.3039999999999985,16.2,83.804,1
40.826,-39.676,964.0,-69.696,-48.8,235.804,1
-262.174,-102.676,1289.0,-686.696,604.2,-187.196,1
-158.174,-274.676,745.0,-582.696,944.2,-304.196,1
-256.174,-381.676,913.0,-991.696,211.2,-202.196,1
-177.174,-495.676,592.0,-821.696,-517.8,-210.196,1
-193.174,-734.676,636.0,-647.696,-659.8,-326.196,1
26.826,-764.676,716.0,-303.696,111.2,-107.196,1
-11.174,-778.676,517.0,-411.696,-29.8,-210.196,1
5.8260000000000005,-864.676,593.0,-189.696,198.2,85.804,1
-31.174,-791.676,442.0,-59.696,-240.8,-160.196,1
18.826,-881.676,544.0,39.304,97.2,20.804,1
-1.1739999999999995,-865.676,587.0,-162.696,164.2,80.804,1
-37.174,-848.676,490.0,-145.696,176.2,2.8039999999999985,1
-45.174,-919.676,484.0,-47.696,177.2,74.804,1
-84.174,-875.676,432.0,-22.696,-125.8,-69.196,1
-46.174,-880.676,411.0,-1.6960000000000015,-47.8,-23.196,1
6.8260000000000005,-851.676,437.0,-3.6960000000000015,-60.8,-68.196,1
-2.1739999999999995,-853.676,421.0,73.304,-27.8,-31.196,1
37.826,-872.676,482.0,28.304,17.2,62.804,1
-20.174,-838.676,389.0,37.304,-54.8,-15.196000000000002,1
24.826,-846.676,500.0,147.304,-51.8,-109.196,1
18.826,-806.676,461.0,120.304,-188.8,-50.196,1
-35.174,-715.676,432.0,407.304,94.2,15.803999999999998,1
25.826,-768.676,684.0,589.304,-207.8,-87.196,1
125.826,-675.676,719.0,607.304,-190.8,25.804,1
114.826,-549.676,856.0,520.304,241.2,131.804,1
-2051.174,-1999.676,918.0,2523.304,-2495.8,2520.804,1
55.826,-92.676,554.0,-45.696,-94.8,-426.196,1
0.8260000000000005,1.324,964.0,7.3039999999999985,4.2,-0.1960000000000015,1
11.826,-9.676,1013.0,8.303999999999998,-19.8,-3.1960000000000015,1
1.8260000000000005,-1.676,936.0,-0.6960000000000015,-2.8,-1.1960000000000015,1
6.8260000000000005,-1.676,930.0,1.3039999999999985,1.2000000000000002,0.8039999999999985,1
-0.1739999999999995,-2.676,934.0,-1.6960000000000015,1.2000000000000002,-0.1960000000000015,1
-0.1739999999999995,-0.6759999999999999,924.0,1.3039999999999985,0.20000000000000018,0.8039999999999985,1
0.8260000000000005,0.324,938.0,0.3039999999999985,1.2000000000000002,0.8039999999999985,1
-0.1739999999999995,2.324,930.0,-0.6960000000000015,-1.7999999999999998,-0.1960000000000015,1
0.8260000000000005,2.324,930.0,-0.6960000000000015,0.20000000000000018,-0.1960000000000015,1
3.8260000000000005,-4.676,939.0,-0.6960000000000015,1.2000000000000002,0.8039999999999985,1
1.8260000000000005,-2.676,932.0,1.3039999999999985,-0.7999999999999998,-0.1960000000000015,1
1.8260000000000005,2.324,937.0,-0.6960000000000015,-1.7999999999999998,-1.1960000000000015,1
0.8260000000000005,-0.6759999999999999,923.0,0.3039999999999985,-0.7999999999999998,-0.1960000000000015,1
-0.1739999999999995,-3.676,929.0,0.3039999999999985,0.20000000000000018,-0.1960000000000015,1
4.8260000000000005,-1.676,927.0,-2.6960000000000015,0.20000000000000018,-1.1960000000000015,1
0.8260000000000005,-0.6759999999999999,929.0,0.3039999999999985,0.20000000000000018,-0.1960000000000015,1
0.8260000000000005,1.324,936.0,0.3039999999999985,-0.7999999999999998,0.8039999999999985,1
8.826,-2.676,926.0,-0.6960000000000015,1.2000000000000002,-0.1960000000000015,1
3.8260000000000005,5.324,923.0,-0.6960000000000015,0.20000000000000018,0.8039999999999985,1
3.8260000000000005,-1.676,925.0,2.3039999999999985,-0.7999999999999998,0.8039999999999985,1
-0.1739999999999995,1.324,930.0,-1.6960000000000015,-1.7999999999999998,-0.1960000000000015,1
1.8260000000000005,3.324,929.0,0.3039999999999985,1.2000000000000002,0.8039999999999985,1
2.8260000000000005,-5.676,935.0,1.3039999999999985,-0.7999999999999998,0.8039999999999985,1
5.8260000000000005,0.324,928.0,2.3039999999999985,-0.7999999999999998,-1.1960000000000015,1
6.8260000000000005,-5.676,938.0,0.3039999999999985,-1.7999999999999998,-0.1960000000000015,1
0.8260000000000005,5.324,935.0,0.3039999999999985,-1.7999999999999998,-2.1960000000000015,1
7.8260000000000005,-0.6759999999999999,930.0,1.3039999999999985,-1.7999999999999998,-1.1960000000000015,1
2.8260000000000005,0.324,933.0,-0.6960000000000015,1.2000000000000002,-1.1960000000000015,1
-0.1739999999999995,1.324,925.0,-0.6960000000000015,-0.7999999999999998,-1.1960000000000015,1
5.8260000000000005,0.324,935.0,0.3039999999999985,1.2000000000000002,-2.1960000000000015,1
5.8260000000000005,5.324,928.0,-1.6960000000000015,0.20000000000000018,-0.1960000000000015,1
1.8260000000000005,-2.676,934.0,0.3039999999999985,-0.7999999999999998,-0.1960000000000015,1
-3.1739999999999995,0.324,930.0,0.3039999999999985,-0.7999999999999998,-1.1960000000000015,1
-0.1739999999999995,8.324,923.0,0.3039999999999985,0.20000000000000018,-0.1960000000000015,1
0.8260000000000005,0.324,925.0,-0.6960000000000015,1.2000000000000002,-0.1960000000000015,1
-1.1739999999999995,2.324,927.0,0.3039999999999985,-0.7999999999999998,-1.1960000000000015,1
8.826,5.324,930.0,-0.6960000000000015,-1.7999999999999998,0.8039999999999985,1
3.8260000000000005,-1.676,927.0,-0.6960000000000015,-0.7999999999999998,-0.1960000000000015,1
0.8260000000000005,1.324,927.0,1.3039999999999985,-2.8,-2.1960000000000015,1
4.8260000000000005,0.324,928.0,0.3039999999999985,0.20000000000000018,-0.1960000000000015,1
4.8260000000000005,-0.6759999999999999,924.0,0.3039999999999985,0.20000000000000018,-1.1960000000000015,1
-3.1739999999999995,-0.6759999999999999,931.0,0.3039999999999985,-0.7999999999999998,-0.1960000000000015,1
0.8260000000000005,0.324,937.0,-0.6960000000000015,0.20000000000000018,-0.1960000000000015,1
-2.1739999999999995,-0.6759999999999999,931.0,-0.6960000000000015,-0.7999999999999998,-0.1960000000000015,1
0.8260000000000005,1.324,933.0,1.3039999999999985,-1.7999999999999998,1.8039999999999985,1
6.8260000000000005,0.324,940.0,0.3039999999999985,-0.7999999999999998,-0.1960000000000015,1
-0.1739999999999995,-5.676,936.0,-0.6960000000000015,0.20000000000000018,-0.1960000000000015,1
2.8260000000000005,1.324,933.0,-1.6960000000000015,1.2000000000000002,0.8039999999999985,1
3.8260000000000005,5.324,939.0,0.3039999999999985,1.2000000000000002,-0.1960000000000015,1
0.8260000000000005,1.324,930.0,1.3039999999999985,0.20000000000000018,-1.1960000000000015,0
3.8260000000000005,0.324,936.0,-0.6960000000000015,0.20000000000000018,-0.1960000000000015,0
191.826,-28.676,889.0,-4.6960000000000015,70.2,204.804,0
-436.174,-386.676,703.0,-678.696,2506.2,-776.196,0
-679.174,-395.676,-400.0,-260.696,-113.8,123.804,0
433.826,-689.676,441.0,-677.696,-2495.8,-2038.196,0
337.826,-521.676,-1291.0,251.304,-1687.8,132.804,0
501.826,-3.676,-979.0,5.3039999999999985,-6.8,-11.196000000000002,0
954.826,-128.676,-701.0,-341.696,2506.2,1104.804,0
1.8260000000000005,-0.6759999999999999,937.0,-0.6960000000000015,0.20000000000000018,-0.1960000000000015,1
0.8260000000000005,0.324,921.0,0.3039999999999985,-0.7999999999999998,0.8039999999999985,1
8.826,1.324,935.0,0.3039999999999985,-2.8,0.8039999999999985,1
0.8260000000000005,1.324,930.0,1.3039999999999985,0.20000000000000018,-1.1960000000000015,1
1.8260000000000005,1.324,938.0,2.3039999999999985,-0.7999999999999998,0.8039999999999985,1
7.8260000000000005,-2.676,1006.0,-8.696000000000002,-24.8,-8.196000000000002,1
6.8260000000000005,1.324,952.0,3.3039999999999985,3.2,0.8039999999999985,1
2.8260000000000005,1.324,937.0,-0.6960000000000015,0.20000000000000018,-1.1960000000000015,1
3.8260000000000005,0.324,936.0,-0.6960000000000015,0.20000000000000018,-0.1960000000000015,1
-61.174,-214.676,602.0,42.304,116.2,181.804,1
-16.174,75.324,1015.0,8.303999999999998,23.2,46.804,1
-166.174,134.324,932.0,30.304,-43.8,229.804,1
20.826,-47.676,899.0,8.303999999999998,3.2,-186.196,1
191.826,-28.676,889.0,-4.6960000000000015,70.2,204.804,1
-4.1739999999999995,-54.676,788.0,-22.696,-102.8,-311.196,1
218.826,112.324,906.0,-32.696,68.2,178.804,1
-91.174,-69.676,1183.0,-343.696,359.2,265.804,1
-354.174,-253.676,917.0,-623.696,1765.2,-206.196,1
-436.174,-386.676,703.0,-678.696,2506.2,-776.196,1
-734.174,-548.676,263.0,-829.696,1994.2,-130.196,1
-778.174,-579.676,-11.0,-196.696,1605.2,-207.196,1
-763.174,-512.676,-302.0,-235.696,651.2,64.804,1
-733.174,-420.676,-388.0,-223.696,212.2,-103.196,1
-679.174,-395.676,-400.0,-260.696,-113.8,123.804,1
-629.174,-409.676,-394.0,-37.696,-333.8,208.804,1
-738.174,-439.676,-338.0,143.304,-837.8,280.804,1
-662.174,-292.676,-531.0,441.304,-2495.8,558.804,1
-451.174,-673.676,441.0,-225.696,-2495.8,-216.196,1
433.826,-689.676,441.0,-677.696,-2495.8,-2038.196,1
900.826,-403.676,-10.0,-14.696000000000002,-2495.8,-1127.196,1
879.826,-347.676,-520.0,-99.696,-2495.8,-378.196,1
696.826,-387.676,-1261.0,690.304,-2087.8,250.804,1
467.826,-604.676,-989.0,266.304,502.2,-152.196,1
337.826,-521.676,-1291.0,251.304,-1687.8,132.804,1
362.826,-429.676,-886.0,574.304,725.2,-536.196,1
4.8260000000000005,-118.676,58.0,-1582.696,2506.2,137.804,1
524.826,-7.676,-800.0,-1026.696,1341.2,-1192.196,1
525.826,36.324,-993.0,-40.696,-372.8,213.804,1
501.826,-3.676,-979.0,5.3039999999999985,-6.8,-11.196000000000002,1
504.826,-11.676,-967.0,0.3039999999999985,3.2,1.8039999999999985,1
494.826,-16.676,-969.0,-0.6960000000000015,0.20000000000000018,0.8039999999999985,1
334.826,-84.676,-1248.0,-102.696,-12.8,233.804,1
376.826,52.324,-1052.0,423.304,424.2,-65.196,1
954.826,-128.676,-701.0,-341.696,2506.2,1104.804,1
1132.826,-383.676,-332.0,1118.304,2506.2,1802.804,1
926.826,-481.676,38.0,-63.696,2505.2,488.804,1
443.826,-619.676,444.0,-612.696,1829.2,-108.196,1
47.826,-507.676,193.0,1003.304,1725.2,65.804,1
-519.174,-182.676,-2000.0,2523.304,2506.2,898.804,1
-340.174,425.324,-828.0,142.304,-2495.8,11.803999999999998,1
-32.174,-2.676,785.0,-25.696,6.2,0.8039999999999985,1
6.8260000000000005,-0.6759999999999999,930.0,-2.6960000000000015,-3.8,-0.1960000000000015,1
6.8260000000000005,-1.676,947.0,-0.6960000000000015,0.20000000000000018,-1.1960000000000015,1
3.8260000000000005,1.324,935.0,1.3039999999999985,0.20000000000000018,-0.1960000000000015,1
-3.1739999999999995,-6.676,935.0,1.3039999999999985,-0.7999999999999998,-1.1960000000000015,1
0.8260000000000005,1.324,934.0,-1.6960000000000015,1.2000000000000002,-0.1960000000000015,1
3.8260000000000005,3.324,935.0,-1.6960000000000015,1.2000000000000002,-1.1960000000000015,1
6.8260000000000005,0.324,927.0,-0.6960000000000015,1.2000000000000002,0.8039999999999985,1
-5.1739999999999995,1.324,929.0,-1.6960000000000015,1.2000000000000002,-1.1960000000000015,1
-0.1739999999999995,4.324,929.0,0.3039999999999985,0.20000000000000018,-1.1960000000000015,1
7.8260000000000005,-2.676,933.0,0.3039999999999985,0.20000000000000018,0.8039999999999985,1
4.8260000000000005,0.324,927.0,-0.6960000000000015,-0.7999999999999998,-0.1960000000000015,1
-0.1739999999999995,-1.676,924.0,-1.6960000000000015,0.20000000000000018,-0.1960000000000015,1
3.8260000000000005,0.324,930.0,0.3039999999999985,1.2000000000000002,-0.1960000000000015,1
-0.1739999999999995,0.324,934.0,0.3039999999999985,1.2000000000000002,0.8039999999999985,1
-1.1739999999999995,8.324,938.0,0.3039999999999985,-1.7999999999999998,-0.1960000000000015,1
0.8260000000000005,5.324,935.0,-0.6960000000000015,-1.7999999999999998,0.8039999999999985,1
-4.1739999999999995,0.324,939.0,-1.6960000000000015,1.2000000000000002,-0.1960000000000015,1
-4.1739999999999995,0.324,929.0,-1.6960000000000015,2.2,-1.1960000000000015,1
-0.1739999999999995,0.324,929.0,-0.6960000000000015,0.20000000000000018,-0.1960000000000015,1
0.8260000000000005,-0.6759999999999999,937.0,-1.6960000000000015,2.2,-0.1960000000000015,1
-2.1739999999999995,2.324,932.0,0.3039999999999985,0.20000000000000018,0.8039999999999985,1
2.8260000000000005,-5.676,940.0,-1.6960000000000015,1.2000000000000002,-0.1960000000000015,1
6.8260000000000005,5.324,923.0,-1.6960000000000015,2.2,0.8039999999999985,1
4.8260000000000005,0.324,930.0,-0.6960000000000015,1.2000000000000002,-2.1960000000000015,1
6.8260000000000005,-0.6759999999999999,927.0,0.3039999999999985,-0.7999999999999998,-0.1960000000000015,1
-1.1739999999999995,8.324,935.0,-1.6960000000000015,-3.8,-0.1960000000000015,1
9.826,0.324,924.0,-1.6960000000000015,-0.7999999999999998,-0.1960000000000015,1
1.8260000000000005,-2.676,928.0,-1.6960000000000015,0.20000000000000018,0.8039999999999985,1
-7.1739999999999995,3.324,928.0,-1.6960000000000015,-2.8,-1.1960000000000015,1
2.8260000000000005,8.324,934.0,0.3039999999999985,-0.7999999999999998,-0.1960000000000015,1
0.8260000000000005,1.324,942.0,1.3039999999999985,1.2000000000000002,-0.1960000000000015,1
1.8260000000000005,3.324,931.0,1.3039999999999985,0.20000000000000018,-1.1960000000000015,1
0.8260000000000005,4.324,930.0,-0.6960000000000015,0.20000000000000018,-1.1960000000000015,1
1.8260000000000005,3.324,923.0,0.3039999999999985,0.20000000000000018,-0.1960000000000015,1
1.8260000000000005,-1.676,928.0,0.3039999999999985,0.20000000000000018,-0.1960000000000015,1
3.8260000000000005,3.324,928.0,-0.6960000000000015,-0.7999999999999998,-1.1960000000000015,1
10.826,-0.6759999999999999,931.0,0.3039999999999985,0.20000000000000018,-1.1960000000000015,1
-0.1739999999999995,-1.676,925.0,0.3039999999999985,0.20000000000000018,-0.1960000000000015,1
3.8260000000000005,10.324,862.0,-5.6960000000000015,-4.8,-0.1960000000000015,1
3.8260000000000005,2.324,926.0,1.3039999999999985,-0.7999999999999998,-1.1960000000000015,1
3.8260000000000005,-2.676,925.0,0.3039999999999985,1.2000000000000002,-1.1960000000000015,1
4.8260000000000005,-3.676,924.0,2.3039999999999985,-1.7999999999999998,-0.1960000000000015,1
12.826,-22.676,974.0,4.3039999999999985,-41.8,-97.196,1
1.8260000000000005,0.324,917.0,-56.696,-94.8,-1.1960000000000015,1
83.826,85.324,993.0,33.304,66.2,107.804,1
211.826,-15.676,1212.0,-55.696,25.2,275.804,1
-366.174,-85.676,1040.0,-1220.696,-570.8,1098.804,1
-223.174,-93.676,-470.0,1528.304,1629.2,-2289.196,1
944.826,-35.676,1999.0,-293.696,-721.8,360.804,1
49.826,-90.676,1002.0,8.303999999999998,-4.8,-52.196,1
5.8260000000000005,3.324,935.0,0.3039999999999985,13.2,-1.1960000000000015,1
0.8260000000000005,-0.6759999999999999,909.0,-9.696000000000002,-22.8,-1.1960000000000015,1
-129.174,-41.676,947.0,40.304,-217.8,133.804,1
-63.174,107.324,1134.0,-490.696,357.2,-23.196,1
182.826,-111.676,930.0,-755.696,137.2,-457.196,1
144.826,-274.676,1014.0,-1156.696,-84.8,-341.196,1
74.826,-519.676,625.0,-1013.696,-553.8,-179.196,1
359.826,-647.676,681.0,-233.696,-179.8,-94.196,1
421.826,-714.676,660.0,-444.696,-581.8,159.804,1
307.826,-577.676,419.0,-496.696,18.2,-60.196,1
66.826,-697.676,285.0,-606.696,619.2,284.804,1
104.826,-932.676,389.0,-488.696,256.2,-26.196,1
46.826,-889.676,324.0,-484.696,212.2,-149.196,1
55.826,-1011.676,216.0,-623.696,135.2,80.804,1
67.826,-995.676,160.0,-858.696,187.2,-18.196,1
11.826,-958.676,-208.0,-1119.696,50.2,-148.196,1
143.826,-949.676,-556.0,-975.696,292.2,50.804,1
96.826,-719.676,-666.0,-112.696,-78.8,279.804,1
34.826,-690.676,-688.0,83.304,-15.8,-137.196,1
-16.174,-880.676,-701.0,480.304,-210.8,-219.196,1
295.826,-1069.676,-571.0,561.304,184.2,165.804,1
120.826,-1008.676,-329.0,893.304,-93.8,-92.196,1
266.826,-1218.676,13.0,1108.304,-450.8,-346.196,1
189.826,-749.676,503.0,1836.304,-281.8,-240.196,1
260.826,-529.676,396.0,184.304,15.2,58.804,1
209.826,-805.676,450.0,-661.696,63.2,34.804,1
280.826,-722.676,317.0,-772.696,94.2,-64.196,1
464.826,-1091.676,286.0,-1268.696,586.2,-170.196,1
86.826,-1056.676,-298.0,-683.696,1479.2,-438.196,1
-447.174,-1344.676,-638.0,354.304,-1145.8,-900.196,1
1212.826,-738.676,-243.0,1306.304,-2495.8,-110.196,1
1275.826,-567.676,-119.0,-388.696,963.2,141.804,1
561.826,-693.676,-333.0,-1266.696,2506.2,-616.196,1
-174.174,-1462.676,-204.0,213.304,537.2,-493.196,1
121.826,-1359.676,-515.0,306.304,-2386.8,1584.804,1
1753.826,-585.676,-298.0,182.304,-739.8,1342.804,1
668.826,-571.676,-778.0,-1413.696,2506.2,-1515.196,1
-572.174,-1908.676,-448.0,527.304,-549.8,2425.804,1
1757.826,-498.676,369.0,788.304,-2495.8,-456.196,1
156.826,-1326.676,-1011.0,-1165.696,2506.2,-2481.196,1
1363.826,-1338.676,-847.0,2006.304,-2495.8,2520.804,1
-2051.174,-1999.676,-1776.0,-1524.696,53.2,-2329.196,1
1947.826,158.324,864.0,-1012.696,2506.2,-2481.196,1
1947.826,-555.676,1067.0,590.304,-1489.8,2520.804,1
36.826,-1864.676,-463.0,569.304,-628.8,2256.804,1
466.826,-982.676,212.0,24.304,230.2,-181.196,1
7.8260000000000005,-874.676,-241.0,-383.696,641.2,-832.196,1
45.826,-1517.676,-31.0,-315.696,434.2,53.804,1
1947.826,-431.676,11.0,340.304,-1955.8,1948.804,1
-1408.174,-1841.676,-909.0,37.304,879.2,-1030.196,1
1947.826,-953.676,200.0,1065.304,-2280.8,2445.804,1
-2051.174,-1999.676,-1661.0,20.304,-2138.8,895.804,1
1345.826,325.324,-319.0,-375.696,2506.2,-2481.196,1
1947.826,-1999.676,99.0,-669.696,-2495.8,2520.804,1
-230.174,-930.676,9.0,-273.696,451.2,971.804,1
531.826,-716.676,179.0,-40.696,337.2,-101.196,1
362.826,-991.676,-22.0,403.304,-1.7999999999999998,591.804,1
315.826,-804.676,284.0,1427.304,600.2,11.803999999999998,1
52.826,-868.676,482.0,1268.304,258.2,247.804,1
124.826,-624.676,871.0,739.304,-414.8,129.804,1
159.826,-674.676,1053.0,-232.696,-247.8,123.804,1
174.826,-771.676,692.0,-1101.696,-784.8,187.804,1
196.826,-905.676,658.0,-1196.696,-354.8,119.804,1
219.826,-527.676,323.0,-248.696,483.2,-807.196,1
203.826,-695.676,238.0,-1197.696,-55.8,1582.804,1
-1084.174,-1131.676,-495.0,-199.696,322.2,-1151.196,1
1947.826,-473.676,824.0,-827.696,801.2,-417.196,1
-2051.174,-1999.676,-1554.0,825.304,-1744.8,-25.196,1
1947.826,-57.676,736.0,-972.696,2506.2,-769.196,1
5.8260000000000005,-1480.676,-1473.0,1371.304,-2495.8,1705.804,1
499.826,-606.676,-791.0,-1662.696,2506.2,-231.196,1
1947.826,-154.676,112.0,1104.304,-2495.8,1402.804,1
-2051.174,-1999.676,-2000.0,191.304,504.2,-1655.196,1
1947.826,168.324,128.0,621.304,-2495.8,1596.804,1
-2051.174,-1999.676,-1949.0,195.304,-1199.8,-635.196,1
1947.826,562.324,624.0,-1926.696,2506.2,-1359.196,1
-1059.174,-1939.676,-1131.0,812.304,-2495.8,115.804,1
1947.826,-529.676,-634.0,-2397.696,2506.2,-2116.196,1
660.826,-534.676,-1320.0,2523.304,-2495.8,2520.804,1
-2051.174,-1999.676,-1947.0,-487.696,1587.2,-909.196,1
1947.826,451.324,1460.0,-1355.696,2506.2,-1435.196,1
-1382.174,-1999.676,-1310.0,461.304,-2495.8,413.804,1
1135.826,-350.676,-1248.0,-1376.696,2506.2,-2481.196,1
1947.826,-134.676,96.0,1306.304,-1538.8,1840.804,1
-212.174,-1190.676,-450.0,76.304,-91.8,-74.196,1
190.826,-1238.676,-93.0,-222.696,203.2,134.804,1
51.826,-1038.676,-194.0,272.304,-134.8,235.804,1
68.826,-952.676,-132.0,72.304,-138.8,451.804,1
-35.174,-1199.676,29.0,520.304,-236.8,-37.196,1
83.826,-908.676,49.0,382.304,183.2,-99.196,1
284.826,-819.676,350.0,548.304,118.2,-236.196,1
104.826,-901.676,301.0,898.304,628.2,178.804,1
-12.174,-855.676,597.0,752.304,683.2,143.804,1
4.8260000000000005,-753.676,545.0,172.304,139.2,-23.196,1
32.826,-761.676,558.0,84.304,-103.8,-19.196,1
19.826,-797.676,772.0,192.304,-252.8,-14.196000000000002,1
66.826,-714.676,603.0,200.304,169.2,-29.196,1
338.826,-738.676,718.0,139.304,-2495.8,-462.196,1
333.826,-694.676,481.0,88.304,-211.8,104.804,1
328.826,-636.676,532.0,38.304,511.2,114.804,1
256.826,-523.676,675.0,-150.696,279.2,27.804,0
163.826,-658.676,553.0,492.304,190.2,253.804,0
-52.174,-445.676,834.0,-88.696,-122.8,18.804,0
15.826,-270.676,867.0,121.304,29.2,-56.196,0
256.826,-523.676,675.0,-150.696,279.2,27.804,1
101.826,-619.676,767.0,-220.696,77.2,2.8039999999999985,1
137.826,-685.676,543.0,-268.696,275.2,11.803999999999998,1
85.826,-723.676,600.0,-116.696,166.2,-46.196,1
104.826,-679.676,556.0,-6.6960000000000015,68.2,35.804,1
163.826,-658.676,553.0,492.304,190.2,253.804,1
-11.174,-710.676,682.0,602.304,81.2,184.804,1
30.826,-578.676,796.0,404.304,25.2,130.804,1
-42.174,-521.676,845.0,131.304,-157.8,63.804,1
-15.174,-472.676,824.0,179.304,303.2,14.803999999999998,1
-52.174,-445.676,834.0,-88.696,-122.8,18.804,1
-70.174,-454.676,809.0,160.304,-31.8,-3.1960000000000015,1
-50.174,-391.676,786.0,397.304,83.2,20.804,1
-37.174,-331.676,824.0,532.304,-87.8,152.804,1
-77.174,-402.676,835.0,74.304,26.2,16.804,1
15.826,-270.676,867.0,121.304,29.2,-56.196,1
-18.174,-249.676,908.0,76.304,-212.8,98.804,1
-3.1739999999999995,-264.676,881.0,158.304,75.2,-19.196,1
-17.174,-210.676,888.0,258.304,128.2,9.803999999999998,1
-326.174,-764.676,1985.0,2461.304,-748.8,71.804,1
74.826,-22.676,991.0,-7.6960000000000015,-29.8,-27.196,1
13.826,0.324,972.0,-62.696,-115.8,1.8039999999999985,1
8.826,-2.676,940.0,3.3039999999999985,11.2,-0.1960000000000015,1
9.826,-5.676,932.0,-2.6960000000000015,-3.8,-0.1960000000000015,1
4.8260000000000005,0.324,936.0,1.3039999999999985,2.2,-1.1960000000000015,1
4.8260000000000005,-2.676,923.0,0.3039999999999985,2.2,-1.1960000000000015,1
0.8260000000000005,-3.676,929.0,0.3039999999999985,0.20000000000000018,-1.1960000000000015,1
6.8260000000000005,0.324,922.0,-0.6960000000000015,1.2000000000000002,-0.1960000000000015,1
0.8260000000000005,-7.676,935.0,-2.6960000000000015,-1.7999999999999998,-0.1960000000000015,1
2.8260000000000005,8.324,934.0,0.3039999999999985,0.20000000000000018,-0.1960000000000015,1
-0.1739999999999995,-3.676,928.0,-1.6960000000000015,-0.7999999999999998,-0.1960000000000015,1
2.8260000000000005,-1.676,934.0,-1.6960000000000015,0.20000000000000018,-2.1960000000000015,1
7.8260000000000005,-6.676,926.0,-0.6960000000000015,1.2000000000000002,-9.196000000000002,1
1.8260000000000005,-0.6759999999999999,929.0,0.3039999999999985,-0.7999999999999998,-1.1960000000000015,1
-0.1739999999999995,-7.676,924.0,0.3039999999999985,1.2000000000000002,-0.1960000000000015,1
9.826,-5.676,924.0,-0.6960000000000015,1.2000000000000002,-2.1960000000000015,1
1.8260000000000005,-0.6759999999999999,920.0,0.3039999999999985,1.2000000000000002,-0.1960000000000015,1
7.8260000000000005,-1.676,935.0,0.3039999999999985,-1.7999999999999998,-2.1960000000000015,1
-1.1739999999999995,-4.676,939.0,1.3039999999999985,-0.7999999999999998,-0.1960000000000015,1
1.8260000000000005,-2.676,926.0,-0.6960000000000015,1.2000000000000002,-1.1960000000000015,1
3.8260000000000005,-1.676,923.0,1.3039999999999985,0.20000000000000018,-2.1960000000000015,1
4.8260000000000005,-0.6759999999999999,931.0,0.3039999999999985,-0.7999999999999998,-0.1960000000000015,1
7.8260000000000005,0.324,937.0,-0.6960000000000015,0.20000000000000018,-1.1960000000000015,1
3.8260000000000005,-6.676,928.0,-0.6960000000000015,2.2,-0.1960000000000015,1
-0.1739999999999995,3.324,926.0,-0.6960000000000015,1.2000000000000002,-1.1960000000000015,1
4.8260000000000005,-0.6759999999999999,932.0,-0.6960000000000015,1.2000000000000002,-0.1960000000000015,1
0.8260000000000005,5.324,930.0,0.3039999999999985,1.2000000000000002,-0.1960000000000015,1
0.8260000000000005,-0.6759999999999999,936.0,-0.6960000000000015,-0.7999999999999998,-0.1960000000000015,1
1.8260000000000005,-3.676,924.0,1.3039999999999985,-0.7999999999999998,-3.1960000000000015,1
5.8260000000000005,0.324,928.0,0.3039999999999985,-0.7999999999999998,-0.1960000000000015,1
5.8260000000000005,3.324,936.0,1.3039999999999985,0.20000000000000018,-2.1960000000000015,1
0.8260000000000005,-1.676,922.0,1.3039999999999985,-2.8,-0.1960000000000015,1
3.8260000000000005,1.324,930.0,0.3039999999999985,-2.8,-1.1960000000000015,1
8.826,-3.676,935.0,-0.6960000000000015,0.20000000000000018,-0.1960000000000015,1
3.8260000000000005,0.324,932.0,0.3039999999999985,1.2000000000000002,-0.1960000000000015,1
5.8260000000000005,1.324,938.0,0.3039999999999985,-0.7999999999999998,0.8039999999999985,1
-1.1739999999999995,-3.676,929.0,1.3039999999999985,-0.7999999999999998,-0.1960000000000015,1
2.8260000000000005,-2.676,924.0,1.3039999999999985,0.20000000000000018,0.8039999999999985,1
4.8260000000000005,1.324,931.0,1.3039999999999985,3.2,-1.1960000000000015,1
0.8260000000000005,-0.6759999999999999,935.0,0.3039999999999985,-2.8,0.8039999999999985,1
6.8260000000000005,-2.676,928.0,-0.6960000000000015,0.20000000000000018,-1.1960000000000015,1
4.8260000000000005,1.324,933.0,-0.6960000000000015,0.20000000000000018,-0.1960000000000015,1
6.8260000000000005,-1.676,927.0,3.3039999999999985,1.2000000000000002,-1.1960000000000015,1
7.8260000000000005,1.324,929.0,0.3039999999999985,1.2000000000000002,0.8039999999999985,1
3.8260000000000005,5.324,940.0,2.3039999999999985,2.2,-1.1960000000000015,1
3.8260000000000005,-0.6759999999999999,919.0,-0.6960000000000015,1.2000000000000002,-1.1960000000000015,1
-1.1739999999999995,8.324,937.0,-0.6960000000000015,-0.7999999999999998,-2.1960000000000015,1
14.826,0.324,918.0,2.3039999999999985,-0.7999999999999998,-1.1960000000000015,1
9.826,0.324,926.0,1.3039999999999985,0.20000000000000018,-0.1960000000000015,1
4.8260000000000005,-0.6759999999999999,934.0,-0.6960000000000015,1.2000000000000002,0.8039999999999985,1
11.826,-0.6759999999999999,930.0,0.3039999999999985,-0.7999999999999998,-2.1960000000000015,0
13.826,5.324,925.0,-0.6960000000000015,0.20000000000000018,-1.1960000000000015,0
5.8260000000000005,8.324,927.0,0.3039999999999985,1.2000000000000002,-0.1960000000000015,0
0.8260000000000005,0.324,931.0,-1.6960000000000015,-0.7999999999999998,1.8039999999999985,0
-3.1739999999999995,5.324,930.0,-0.6960000000000015,1.2000000000000002,-0.1960000000000015,0
4.8260000000000005,1.324,926.0,-0.6960000000000015,0.20000000000000018,-0.1960000000000015,0
4.8260000000000005,3.324,925.0,-0.6960000000000015,-0.7999999999999998,-1.1960000000000015,0
-4.1739999999999995,0.324,929.0,0.3039999999999985,1.2000000000000002,-1.1960000000000015,0
9.826,-2.676,932.0,0.3039999999999985,1.2000000000000002,-0.1960000000000015,0
-0.1739999999999995,3.324,935.0,-1.6960000000000015,0.20000000000000018,0.8039999999999985,0
3.8260000000000005,-0.6759999999999999,929.0,1.3039999999999985,-0.7999999999999998,0.8039999999999985,0
7.8260000000000005,7.324,935.0,-2.6960000000000015,-6.8,0.8039999999999985,0
-1.1739999999999995,0.324,920.0,-4.6960000000000015,-4.8,0.8039999999999985,0
9.826,1.324,927.0,0.3039999999999985,0.20000000000000018,0.8039999999999985,0
9.826,-8.676,918.0,-4.6960000000000015,2.2,1.8039999999999985,0
6.8260000000000005,3.324,892.0,-7.6960000000000015,-3.8,-0.1960000000000015,0
-5.1739999999999995,0.324,926.0,-0.6960000000000015,0.20000000000000018,-0.1960000000000015,0
4.8260000000000005,-1.676,939.0,0.3039999999999985,2.2,0.8039999999999985,0
-6.1739999999999995,1.324,934.0,2.3039999999999985,2.2,0.8039999999999985,0
-2.1739999999999995,-3.676,937.0,0.3039999999999985,0.20000000000000018,-0.1960000000000015,0
5.8260000000000005,-1.676,935.0,0.3039999999999985,0.20000000000000018,0.8039999999999985,0
-2.1739999999999995,0.324,927.0,1.3039999999999985,-0.7999999999999998,0.8039999999999985,0
0.8260000000000005,-4.676,934.0,0.3039999999999985,0.20000000000000018,-1.1960000000000015,0
8.826,-2.676,933.0,1.3039999999999985,-1.7999999999999998,0.8039999999999985,0
0.8260000000000005,-2.676,927.0,-0.6960000000000015,-0.7999999999999998,-0.1960000000000015,0
3.8260000000000005,3.324,928.0,0.3039999999999985,-1.7999999999999998,0.8039999999999985,0
-0.1739999999999995,2.324,928.0,-1.6960000000000015,-0.7999999999999998,0.8039999999999985,0
2.8260000000000005,-3.676,933.0,-0.6960000000000015,2.2,-0.1960000000000015,0
5.8260000000000005,8.324,935.0,0.3039999999999985,1.2000000000000002,1.8039999999999985,0
1.8260000000000005,0.324,931.0,0.3039999999999985,1.2000000000000002,-0.1960000000000015,0
0.8260000000000005,2.324,936.0,-0.6960000000000015,1.2000000000000002,-0.1960000000000015,0
-0.1739999999999995,0.324,931.0,-0.6960000000000015,-0.7999999999999998,-2.1960000000000015,0
3.8260000000000005,-1.676,933.0,0.3039999999999985,0.20000000000000018,-0.1960000000000015,0
0.8260000000000005,3.324,923.0,0.3039999999999985,0.20000000000000018,-0.1960000000000015,0
-29.174,-68.676,1065.0,-592.696,152.2,147.804,0
17.826,-164.676,846.0,-61.696,192.2,-20.196,0
110.826,124.324,1251.0,756.304,-144.8,-295.196,0
1.8260000000000005,0.324,928.0,-0.6960000000000015,-1.7999999999999998,-1.1960000000000015,0
12.826,-3.676,927.0,-0.6960000000000015,0.20000000000000018,-0.1960000000000015,0
-4.1739999999999995,-3.676,929.0,-1.6960000000000015,1.2000000000000002,-0.1960000000000015,0
6.8260000000000005,-3.676,908.0,-3.6960000000000015,-0.7999999999999998,-1.1960000000000015,0
4.8260000000000005,1.324,936.0,0.3039999999999985,1.2000000000000002,-0.1960000000000015,0
-1.1739999999999995,0.324,936.0,0.3039999999999985,0.20000000000000018,-1.1960000000000015,0
0.8260000000000005,0.324,927.0,-0.6960000000000015,2.2,-1.1960000000000015,0
-0.1739999999999995,-11.676,921.0,-0.6960000000000015,0.20000000000000018,-0.1960000000000015,0
1.8260000000000005,-3.676,928.0,0.3039999999999985,0.20000000000000018,-1.1960000000000015,0
11.826,1.324,933.0,0.3039999999999985,-0.7999999999999998,-0.1960000000000015,0
4.8260000000000005,-4.676,932.0,0.3039999999999985,0.20000000000000018,-1.1960000000000015,0
6.8260000000000005,1.324,933.0,1.3039999999999985,2.2,0.8039999999999985,0
5.8260000000000005,-2.676,930.0,0.3039999999999985,-0.7999999999999998,0.8039999999999985,0
1.8260000000000005,-3.676,930.0,1.3039999999999985,0.20000000000000018,-0.1960000000000015,0
2.8260000000000005,-0.6759999999999999,920.0,0.3039999999999985,1.2000000000000002,-0.1960000000000015,0
10.826,-1.676,921.0,-0.6960000000000015,-2.8,-0.1960000000000015,0
3.8260000000000005,-1.676,932.0,0.3039999999999985,-0.7999999999999998,0.8039999999999985,0
0.8260000000000005,0.324,933.0,0.3039999999999985,3.2,-0.1960000000000015,0
2.8260000000000005,-7.676,925.0,-0.6960000000000015,0.20000000000000018,0.8039999999999985,0
14.826,-8.676,923.0,0.3039999999999985,5.2,-0.1960000000000015,0
3.8260000000000005,-2.676,929.0,-0.6960000000000015,-0.7999999999999998,-0.1960000000000015,0
-4.1739999999999995,0.324,936.0,-0.6960000000000015,0.20000000000000018,-1.1960000000000015,0
4.8260000000000005,-4.676,932.0,0.3039999999999985,1.2000000000000002,-0.1960000000000015,0
0.8260000000000005,-5.676,938.0,-0.6960000000000015,0.20000000000000018,-0.1960000000000015,0
4.8260000000000005,-0.6759999999999999,929.0,0.3039999999999985,0.20000000000000018,-1.1960000000000015,0
4.8260000000000005,-4.676,931.0,1.3039999999999985,0.20000000000000018,-0.1960000000000015,0
4.8260000000000005,-5.676,923.0,0.3039999999999985,3.2,0.8039999999999985,0
0.8260000000000005,0.324,929.0,1.3039999999999985,-0.7999999999999998,1.8039999999999985,0
5.8260000000000005,-5.676,929.0,0.3039999999999985,0.20000000000000018,0.8039999999999985,0
0.8260000000000005,-2.676,944.0,-0.6960000000000015,0.20000000000000018,-0.1960000000000015,0
7.8260000000000005,-0.6759999999999999,931.0,0.3039999999999985,-1.7999999999999998,-0.1960000000000015,0
6.8260000000000005,0.324,932.0,1.3039999999999985,2.2,-0.1960000000000015,0
4.8260000000000005,0.324,936.0,0.3039999999999985,1.2000000000000002,-0.1960000000000015,0
5.8260000000000005,-5.676,949.0,2.3039999999999985,2.2,-1.1960000000000015,0
6.8260000000000005,-0.6759999999999999,931.0,3.3039999999999985,1.2000000000000002,-1.1960000000000015,0
6.8260000000000005,0.324,936.0,-2.6960000000000015,0.20000000000000018,-0.1960000000000015,0
-0.1739999999999995,-3.676,935.0,-0.6960000000000015,1.2000000000000002,0.8039999999999985,0
2.8260000000000005,-0.6759999999999999,929.0,0.3039999999999985,0.20000000000000018,-0.1960000000000015,0
3.8260000000000005,0.324,932.0,1.3039999999999985,0.20000000000000018,-2.1960000000000015,0
3.8260000000000005,-1.676,928.0,1.3039999999999985,1.2000000000000002,-1.1960000000000015,0
-0.1739999999999995,-2.676,939.0,0.3039999999999985,0.20000000000000018,-0.1960000000000015,0
4.8260000000000005,-2.676,922.0,-0.6960000000000015,0.20000000000000018,0.8039999999999985,0
6.8260000000000005,-5.676,931.0,-0.6960000000000015,0.20000000000000018,1.8039999999999985,0
5.8260000000000005,3.324,937.0,1.3039999999999985,-1.7999999999999998,-1.1960000000000015,0
7.8260000000000005,-5.676,931.0,-1.6960000000000015,-0.7999999999999998,-0.1960000000000015,0
0.8260000000000005,-2.676,934.0,1.3039999999999985,0.20000000000000018,-0.1960000000000015,0
0.8260000000000005,-3.676,929.0,0.3039999999999985,-0.7999999999999998,-0.1960000000000015,0
5.8260000000000005,-3.676,930.0,0.3039999999999985,2.2,-1.1960000000000015,0
3.8260000000000005,-4.676,932.0,0.3039999999999985,2.2,-0.1960000000000015,0
2.8260000000000005,-3.676,938.0,0.3039999999999985,1.2000000000000002,-1.1960000000000015,0
-0.1739999999999995,2.324,929.0,-0.6960000000000015,1.2000000000000002,-0.1960000000000015,0
3.8260000000000005,-2.676,928.0,-1.6960000000000015,1.2000000000000002,-1.1960000000000015,0
7.8260000000000005,-4.676,929.0,-0.6960000000000015,0.20000000000000018,0.8039999999999985,0
3.8260000000000005,-0.6759999999999999,930.0,0.3039999999999985,-0.7999999999999998,-0.1960000000000015,0
0.8260000000000005,0.324,923.0,-1.6960000000000015,-0.7999999999999998,-0.1960000000000015,0
1.8260000000000005,2.324,932.0,1.3039999999999985,0.20000000000000018,-0.1960000000000015,0
1.8260000000000005,-3.676,924.0,-0.6960000000000015,0.20000000000000018,-1.1960000000000015,0
4.8260000000000005,-0.6759999999999999,937.0,2.3039999999999985,3.2,-1.1960000000000015,0
3.8260000000000005,-3.676,935.0,-0.6960000000000015,0.20000000000000018,-0.1960000000000015,0
7.8260000000000005,-6.676,934.0,-0.6960000000000015,0.20000000000000018,-1.1960000000000015,0
7.8260000000000005,-0.6759999999999999,938.0,0.3039999999999985,2.2,-0.1960000000000015,0
5.8260000000000005,-0.6759999999999999,927.0,1.3039999999999985,0.20000000000000018,-1.1960000000000015,0
6.8260000000000005,-2.676,922.0,0.3039999999999985,-0.7999999999999998,-0.1960000000000015,0
2.8260000000000005,0.324,930.0,-1.6960000000000015,-1.7999999999999998,0.8039999999999985,0
6.8260000000000005,0.324,931.0,0.3039999999999985,1.2000000000000002,0.8039999999999985,0
3.8260000000000005,0.324,928.0,0.3039999999999985,2.2,-0.1960000000000015,0
5.8260000000000005,-0.6759999999999999,926.0,-1.6960000000000015,-0.7999999999999998,-0.1960000000000015,0
1.8260000000000005,-4.676,919.0,1.3039999999999985,-0.7999999999999998,-3.1960000000000015,0
1.8260000000000005,-5.676,928.0,0.3039999999999985,0.20000000000000018,0.8039999999999985,0
0.8260000000000005,-2.676,938.0,1.3039999999999985,1.2000000000000002,-0.1960000000000015,0
1.8260000000000005,-3.676,942.0,0.3039999999999985,2.2,-0.1960000000000015,0
1.8260000000000005,-5.676,927.0,0.3039999999999985,-0.7999999999999998,-2.1960000000000015,0
0.8260000000000005,-3.676,931.0,-2.6960000000000015,-1.7999999999999998,1.8039999999999985,0
13.826,2.324,928.0,0.3039999999999985,2.2,-2.1960000000000015,0
6.8260000000000005,-0.6759999999999999,944.0,-0.6960000000000015,0.20000000000000018,-1.1960000000000015,0
5.8260000000000005,3.324,932.0,-0.6960000000000015,0.20000000000000018,0.8039999999999985,0
7.8260000000000005,-6.676,926.0,0.3039999999999985,-0.7999999999999998,0.8039999999999985,0
5.8260000000000005,0.324,922.0,-0.6960000000000015,2.2,0.8039999999999985,0
4.8260000000000005,-0.6759999999999999,931.0,0.3039999999999985,0.20000000000000018,-0.1960000000000015,0
-1.1739999999999995,-2.676,917.0,-1.6960000000000015,-0.7999999999999998,-1.1960000000000015,0
0.8260000000000005,0.324,929.0,2.3039999999999985,-0.7999999999999998,-1.1960000000000015,0
6.8260000000000005,-2.676,933.0,-0.6960000000000015,1.2000000000000002,-0.1960000000000015,0
4.8260000000000005,-5.676,922.0,-0.6960000000000015,0.20000000000000018,-0.1960000000000015,0
1.8260000000000005,-1.676,938.0,2.3039999999999985,0.20000000000000018,0.8039999999999985,0
1.8260000000000005,0.324,920.0,0.3039999999999985,1.2000000000000002,0.8039999999999985,0
8.826,-4.676,928.0,-0.6960000000000015,-0.7999999999999998,-0.1960000000000015,0
6.8260000000000005,-7.676,937.0,3.3039999999999985,1.2000000000000002,-1.1960000000000015,0
1.8260000000000005,0.324,916.0,-0.6960000000000015,1.2000000000000002,-0.1960000000000015,0
9.826,2.324,946.0,2.3039999999999985,3.2,-0.1960000000000015,0
8.826,-5.676,927.0,-0.6960000000000015,-0.7999999999999998,-0.1960000000000015,0
0.8260000000000005,-3.676,936.0,-0.6960000000000015,1.2000000000000002,-0.1960000000000015,0
162.826,-443.676,815.0,-1151.696,-83.8,419.804,0
295.826,-908.676,442.0,-759.696,421.2,125.804,0
46.826,-950.676,143.0,-25.696,-116.8,-134.196,0
443.826,-990.676,-20.0,377.304,-1733.8,-120.196,0
566.826,-854.676,349.0,260.304,1001.2,908.804,0
-7.1739999999999995,-53.676,-306.0,238.304,445.2,-949.196,0
1.8260000000000005,0.324,933.0,-0.6960000000000015,-0.7999999999999998,-0.1960000000000015,0
-10.174,4.324,919.0,1.3039999999999985,2.2,-1.1960000000000015,0
7.8260000000000005,-2.676,919.0,-1.6960000000000015,0.20000000000000018,-0.1960000000000015,0
2.8260000000000005,3.324,925.0,-1.6960000000000015,0.20000000000000018,-1.1960000000000015,0
4.8260000000000005,-2.676,943.0,-0.6960000000000015,-0.7999999999999998,-1.1960000000000015,0
4.8260000000000005,0.324,928.0,2.3039999999999985,0.20000000000000018,0.8039999999999985,0
1.8260000000000005,2.324,929.0,0.3039999999999985,-0.7999999999999998,0.8039999999999985,0
3.8260000000000005,-4.676,927.0,-1.6960000000000015,2.2,0.8039999999999985,0
0.8260000000000005,1.324,922.0,-0.6960000000000015,-0.7999999999999998,0.8039999999999985,0
5.8260000000000005,-2.676,923.0,1.3039999999999985,1.2000000000000002,0.8039999999999985,0
2.8260000000000005,4.324,923.0,-2.6960000000000015,0.20000000000000018,-0.1960000000000015,0
2.8260000000000005,-0.6759999999999999,923.0,0.3039999999999985,-1.7999999999999998,0.8039999999999985,0
6.8260000000000005,0.324,927.0,0.3039999999999985,1.2000000000000002,0.8039999999999985,0
5.8260000000000005,-0.6759999999999999,925.0,-3.6960000000000015,0.20000000000000018,-2.1960000000000015,0
1.8260000000000005,4.324,932.0,-0.6960000000000015,0.20000000000000018,-0.1960000000000015,0
4.8260000000000005,3.324,924.0,-0.6960000000000015,1.2000000000000002,-1.1960000000000015,0
8.826,4.324,939.0,0.3039999999999985,-1.7999999999999998,-0.1960000000000015,0
0.8260000000000005,1.324,937.0,-0.6960000000000015,0.20000000000000018,-0.1960000000000015,0
0.8260000000000005,-5.676,931.0,0.3039999999999985,1.2000000000000002,-0.1960000000000015,0
8.826,5.324,930.0,0.3039999999999985,0.20000000000000018,-1.1960000000000015,0
3.8260000000000005,1.324,924.0,-1.6960000000000015,-1.7999999999999998,-1.1960000000000015,0
4.8260000000000005,0.324,937.0,-0.6960000000000015,0.20000000000000018,-2.1960000000000015,0
4.8260000000000005,0.324,925.0,0.3039999999999985,1.2000000000000002,0.8039999999999985,0
5.8260000000000005,4.324,931.0,-0.6960000000000015,-0.7999999999999998,-1.1960000000000015,0
4.8260000000000005,2.324,929.0,0.3039999999999985,1.2000000000000002,-1.1960000000000015,0
1.8260000000000005,2.324,933.0,1.3039999999999985,-0.7999999999999998,-0.1960000000000015,0
1.8260000000000005,0.324,926.0,0.3039999999999985,-1.7999999999999998,-0.1960000000000015,0
3.8260000000000005,2.324,921.0,-1.6960000000000015,1.2000000000000002,-0.1960000000000015,0
0.8260000000000005,-1.676,930.0,1.3039999999999985,1.2000000000000002,-0.1960000000000015,0
-0.1739999999999995,-1.676,934.0,-1.6960000000000015,-0.7999999999999998,-0.1960000000000015,0
6.8260000000000005,0.324,933.0,1.3039999999999985,2.2,0.8039999999999985,0
5.8260000000000005,2.324,937.0,-2.6960000000000015,3.2,0.8039999999999985,0
7.8260000000000005,-1.676,925.0,-1.6960000000000015,0.20000000000000018,-1.1960000000000015,0
4.8260000000000005,3.324,926.0,1.3039999999999985,1.2000000000000002,-1.1960000000000015,0
6.8260000000000005,2.324,921.0,0.3039999999999985,-0.7999999999999998,0.8039999999999985,0
4.8260000000000005,2.324,928.0,0.3039999999999985,1.2000000000000002,-0.1960000000000015,0
5.8260000000000005,5.324,919.0,0.3039999999999985,0.20000000000000018,-2.1960000000000015,0
1.8260000000000005,6.324,936.0,0.3039999999999985,0.20000000000000018,-1.1960000000000015,0
-0.1739999999999995,5.324,932.0,0.3039999999999985,0.20000000000000018,-0.1960000000000015,0
2.8260000000000005,-0.6759999999999999,937.0,-0.6960000000000015,0.20000000000000018,-1.1960000000000015,0
-0.1739999999999995,16.324,921.0,2.3039999999999985,19.2,-22.196,0
-10.174,4.324,925.0,-3.6960000000000015,-27.8,-3.1960000000000015,0
-21.174,-68.676,905.0,-13.696000000000002,-12.8,-111.196,0
-127.174,-226.676,852.0,-221.696,-410.8,83.804,0
413.826,-299.676,767.0,-537.696,-20.8,-387.196,0
51.826,-269.676,873.0,-221.696,87.2,-309.196,0
42.826,-281.676,724.0,266.304,451.2,-10.196000000000002,0
248.826,-466.676,711.0,-517.696,387.2,241.804,0
-398.174,-738.676,762.0,-502.696,-670.8,298.804,0
39.826,-891.676,414.0,133.304,-700.8,-1445.196,0
169.826,-914.676,-624.0,-427.696,279.2,-24.196,0
117.826,-921.676,364.0,324.304,-676.8,265.804,0
404.826,-646.676,181.0,-531.696,-522.8,-649.196,0
98.826,-862.676,-103.0,-428.696,666.2,705.804,0
-134.174,-852.676,131.0,396.304,340.2,379.804,0
-97.174,-931.676,812.0,-77.696,-175.8,100.804,0
-157.174,-304.676,883.0,401.304,93.2,90.804,0
9.826,-75.676,929.0,-2.6960000000000015,123.2,78.804,0
692.826,-237.676,447.0,571.304,-2126.8,385.804,0
764.826,-448.676,-53.0,-127.696,1597.2,47.804,0
-416.174,-654.676,226.0,-857.696,-213.8,-700.196,0
-48.174,-1000.676,-139.0,-1122.696,888.2,-225.196,0
725.826,-848.676,-520.0,602.304,-1490.8,64.804,0
728.826,-833.676,34.0,452.304,1036.2,462.804,0
121.826,-759.676,365.0,185.304,-237.8,-259.196,0
347.826,-833.676,-367.0,-609.696,1225.2,969.804,0
200.826,-982.676,314.0,705.304,-1491.8,-114.196,0
-292.174,-984.676,-586.0,2132.304,1242.2,412.804,0
-232.174,61.324,725.0,26.304,-436.8,-328.196,0
-314.174,12.324,1075.0,145.304,-183.8,42.804,0
-56.174,29.324,927.0,-16.696,9.2,-88.196,0
-191.174,-171.676,1222.0,-46.696,-148.8,41.804,0
269.826,-817.676,529.0,-2245.696,-374.8,522.804,0
200.826,-893.676,105.0,-61.696,740.2,264.804,0
430.826,-985.676,378.0,1655.304,-53.8,-1152.196,0
-69.174,33.324,927.0,-86.696,94.2,47.804,0
291.826,107.324,986.0,-5.6960000000000015,-388.8,861.804,0
644.826,-421.676,-259.0,46.304,46.2,-220.196,0
-405.174,-8.676,859.0,-1084.696,21.2,111.804,1
-232.174,61.324,725.0,26.304,-436.8,-328.196,1
-260.174,45.324,921.0,-342.696,60.2,136.804,1
-392.174,54.324,854.0,88.304,111.2,-44.196,1
-424.174,21.324,883.0,-379.696,310.2,-7.1960000000000015,1
-477.174,241.324,423.0,4.3039999999999985,-598.8,250.804,1
-314.174,12.324,1075.0,145.304,-183.8,42.804,1
-178.174,-46.676,989.0,103.304,-161.8,196.804,1
-146.174,92.324,236.0,51.304,-1301.8,135.804,1
34.826,4.324,514.0,161.304,-1592.8,449.804,1
-119.174,83.324,1047.0,-213.696,232.2,4.8039999999999985,1
-56.174,29.324,927.0,-16.696,9.2,-88.196,1
-58.174,23.324,916.0,16.304,-23.8,2.8039999999999985,1
319.826,389.324,471.0,126.304,-431.8,122.804,1
305.826,23.324,1297.0,-317.696,846.2,667.804,1
28.826,36.324,951.0,-41.696,14.2,128.804,1
-191.174,-171.676,1222.0,-46.696,-148.8,41.804,1
71.826,-60.676,732.0,-27.696,-230.8,-134.196,1
49.826,30.324,941.0,9.303999999999998,101.2,54.804,1
-167.174,3.324,1406.0,-888.696,13.2,-19.196,1
117.826,-357.676,866.0,-2044.696,-1071.8,909.804,1
269.826,-817.676,529.0,-2245.696,-374.8,522.804,1
202.826,-731.676,295.0,-1529.696,-114.8,132.804,1
84.826,-593.676,-39.0,-715.696,36.2,-543.196,1
419.826,-885.676,87.0,-238.696,-104.8,25.804,1
-37.174,-879.676,20.0,-381.696,486.2,-421.196,1
200.826,-893.676,105.0,-61.696,740.2,264.804,1
90.826,-895.676,-109.0,43.304,274.2,469.804,1
156.826,-783.676,-97.0,46.304,-78.8,-385.196,1
367.826,-854.676,-29.0,236.304,-117.8,-60.196,1
153.826,-560.676,-282.0,563.304,-111.8,100.804,1
430.826,-985.676,378.0,1655.304,-53.8,-1152.196,1
267.826,-934.676,736.0,1583.304,980.2,-349.196,1
-165.174,-38.676,-475.0,2417.304,2506.2,2520.804,1
60.826,347.324,1777.0,1371.304,-341.8,-400.196,1
49.826,67.324,619.0,-72.696,93.2,40.804,1
-69.174,33.324,927.0,-86.696,94.2,47.804,1
6.8260000000000005,-102.676,926.0,357.304,-495.8,146.804,1
31.826,94.324,926.0,6.3039999999999985,-0.7999999999999998,-21.196,1
39.826,48.324,824.0,-471.696,569.2,147.804,1
1079.826,268.324,1014.0,-3.6960000000000015,177.2,797.804,1
291.826,107.324,986.0,-5.6960000000000015,-388.8,861.804,1
-299.174,-318.676,1032.0,-842.696,-526.8,953.804,1
207.826,-120.676,913.0,-295.696,-2495.8,465.804,1
812.826,-371.676,483.0,-45.696,-2492.8,993.804,1
822.826,-779.676,103.0,-2478.696,-2495.8,687.804,1
644.826,-421.676,-259.0,46.304,46.2,-220.196,1
686.826,-728.676,-136.0,268.304,1299.2,-103.196,1
645.826,-815.676,-459.0,260.304,2506.2,1454.804,1
989.826,-460.676,357.0,509.304,1324.2,-35.196,1
-1938.174,-1208.676,1999.0,-102.696,-651.8,-566.196,1
1947.826,132.324,1999.0,537.304,-2202.8,-2481.196,1
1422.826,-423.676,1170.0,2201.304,1454.2,1693.804,1
109.826,-627.676,795.0,724.304,479.2,24.804,1
-26.174,-253.676,833.0,1288.304,794.2,-520.196,1
41.826,-59.676,915.0,53.304,139.2,-16.196,1
113.826,-69.676,915.0,174.304,74.2,-221.196,1
73.826,-49.676,850.0,689.304,90.2,-69.196,1
3.8260000000000005,-10.676,964.0,24.304,37.2,-29.196,1
144.826,46.324,932.0,-8.696000000000002,-11.8,26.804,1
16.826,-0.6759999999999999,895.0,8.303999999999998,-9.8,-208.196,1
-5.1739999999999995,12.324,964.0,1.3039999999999985,-12.8,-70.196,1
4.8260000000000005,-8.676,930.0,1.3039999999999985,1.2000000000000002,-0.1960000000000015,1
4.8260000000000005,1.324,930.0,-1.6960000000000015,-0.7999999999999998,-9.196000000000002,1
1.8260000000000005,1.324,919.0,2.3039999999999985,5.2,-16.196,1
0.8260000000000005,-6.676,935.0,-1.6960000000000015,1.2000000000000002,-1.1960000000000015,1
17.826,-10.676,927.0,6.3039999999999985,3.2,-2.1960000000000015,1
3.8260000000000005,-2.676,884.0,-1.6960000000000015,-2.8,-18.196,1
5.8260000000000005,0.324,931.0,1.3039999999999985,1.2000000000000002,-2.1960000000000015,1
1.8260000000000005,6.324,933.0,-0.6960000000000015,0.20000000000000018,-7.1960000000000015,1
0.8260000000000005,0.324,937.0,1.3039999999999985,1.2000000000000002,-15.196000000000002,1
-0.1739999999999995,-1.676,936.0,0.3039999999999985,0.20000000000000018,-5.1960000000000015,1
2.8260000000000005,-2.676,921.0,-0.6960000000000015,0.20000000000000018,-3.1960000000000015,1
9.826,-2.676,928.0,-0.6960000000000015,-0.7999999999999998,-0.1960000000000015,1
7.8260000000000005,1.324,931.0,0.3039999999999985,1.2000000000000002,-1.1960000000000015,1
1.8260000000000005,4.324,940.0,0.3039999999999985,0.20000000000000018,-0.1960000000000015,1
0.8260000000000005,-7.676,935.0,0.3039999999999985,0.20000000000000018,-1.1960000000000015,1
-3.1739999999999995,0.324,932.0,-1.6960000000000015,-0.7999999999999998,-6.1960000000000015,1
1.8260000000000005,-1.676,912.0,-5.6960000000000015,-0.7999999999999998,-11.196000000000002,1
5.8260000000000005,-2.676,934.0,-0.6960000000000015,-0.7999999999999998,-0.1960000000000015,1
1.8260000000000005,-7.676,929.0,0.3039999999999985,0.20000000000000018,-0.1960000000000015,1
4.8260000000000005,2.324,937.0,-0.6960000000000015,0.20000000000000018,-2.1960000000000015,1
5.8260000000000005,-1.676,927.0,0.3039999999999985,-0.7999999999999998,-1.1960000000000015,1
6.8260000000000005,-0.6759999999999999,934.0,-1.6960000000000015,-0.7999999999999998,-1.1960000000000015,1
0.8260000000000005,0.324,948.0,6.3039999999999985,1.2000000000000002,-0.1960000000000015,1
-0.1739999999999995,-1.676,926.0,-0.6960000000000015,4.2,-1.1960000000000015,1
4.8260000000000005,-3.676,934.0,-0.6960000000000015,1.2000000000000002,-0.1960000000000015,1
-0.1739999999999995,-2.676,932.0,0.3039999999999985,0.20000000000000018,-1.1960000000000015,1
2.8260000000000005,1.324,933.0,2.3039999999999985,1.2000000000000002,-1.1960000000000015,1
5.8260000000000005,-0.6759999999999999,929.0,-0.6960000000000015,-0.7999999999999998,-2.1960000000000015,1
2.8260000000000005,-3.676,927.0,2.3039999999999985,-0.7999999999999998,-0.1960000000000015,1
-4.1739999999999995,-0.6759999999999999,925.0,-0.6960000000000015,0.20000000000000018,0.8039999999999985,1
2.8260000000000005,0.324,929.0,-1.6960000000000015,1.2000000000000002,-1.1960000000000015,1
0.8260000000000005,-4.676,924.0,0.3039999999999985,1.2000000000000002,-1.1960000000000015,1
-3.1739999999999995,0.324,929.0,0.3039999999999985,-1.7999999999999998,-0.1960000000000015,1
2.8260000000000005,-5.676,935.0,-1.6960000000000015,2.2,-1.1960000000000015,1
0.8260000000000005,-6.676,929.0,1.3039999999999985,0.20000000000000018,-1.1960000000000015,1
0.8260000000000005,-0.6759999999999999,932.0,-0.6960000000000015,0.20000000000000018,-1.1960000000000015,1
1.8260000000000005,-0.6759999999999999,929.0,0.3039999999999985,-0.7999999999999998,-3.1960000000000015,1
-2.1739999999999995,-4.676,935.0,-0.6960000000000015,1.2000000000000002,-1.1960000000000015,1
0.8260000000000005,-4.676,932.0,2.3039999999999985,1.2000000000000002,-0.1960000000000015,1
-1.1739999999999995,-0.6759999999999999,930.0,-0.6960000000000015,-1.7999999999999998,-2.1960000000000015,0
2.8260000000000005,-4.676,934.0,0.3039999999999985,-0.7999999999999998,-1.1960000000000015,0
-0.1739999999999995,-3.676,938.0,0.3039999999999985,0.20000000000000018,-1.1960000000000015,0
0.8260000000000005,-1.676,925.0,-0.6960000000000015,0.20000000000000018,-0.1960000000000015,0
-0.1739999999999995,-4.676,936.0,-1.6960000000000015,3.2,-1.1960000000000015,0
9.826,0.324,933.0,2.3039999999999985,1.2000000000000002,0.8039999999999985,0
2.8260000000000005,-1.676,936.0,-0.6960000000000015,2.2,-1.1960000000000015,0
2.8260000000000005,-0.6759999999999999,930.0,-0.6960000000000015,-1.7999999999999998,-0.1960000000000015,0
8.826,-5.676,941.0,0.3039999999999985,0.20000000000000018,0.8039999999999985,0
1.8260000000000005,0.324,937.0,1.3039999999999985,-2.8,-1.1960000000000015,0
2.8260000000000005,-6.676,935.0,0.3039999999999985,-0.7999999999999998,-0.1960000000000015,0
5.8260000000000005,-1.676,931.0,0.3039999999999985,0.20000000000000018,-0.1960000000000015,0
5.8260000000000005,3.324,927.0,2.3039999999999985,-0.7999999999999998,-0.1960000000000015,0
7.8260000000000005,-6.676,931.0,1.3039999999999985,0.20000000000000018,-1.1960000000000015,0
13.826,-42.676,861.0,-30.696,-105.8,-157.196,0
-180.174,-399.676,826.0,-560.696,1072.2,-124.196,0
198.826,-1080.676,307.0,-316.696,-160.8,-115.196,0
523.826,-850.676,-36.0,44.304,54.2,28.804,0
331.826,-964.676,-260.0,103.304,643.2,34.804,0
406.826,-722.676,-229.0,-102.696,755.2,100.804,0
166.826,-882.676,260.0,-81.696,1420.2,-240.196,0
284.826,-920.676,-18.0,-687.696,621.2,-38.196,0
258.826,-964.676,521.0,-653.696,122.2,204.804,0
190.826,-1009.676,319.0,61.304,-430.8,59.804,0
430.826,-1024.676,218.0,-97.696,-334.8,611.804,0
-84.174,-960.676,497.0,-425.696,-231.8,248.804,0
-203.174,-1005.676,296.0,128.304,-566.8,-133.196,0
70.826,-947.676,318.0,-224.696,71.2,-171.196,0
127.826,-932.676,39.0,403.304,-129.8,20.804,0
95.826,-1016.676,69.0,-172.696,138.2,32.804,0
159.826,-980.676,110.0,65.304,-11.8,-72.196,0
207.826,-937.676,116.0,66.304,132.2,79.804,0
106.826,-951.676,46.0,-46.696,408.2,10.803999999999998,0
-201.174,-1162.676,298.0,174.304,-21.8,711.804,0
645.826,-918.676,109.0,-1067.696,-173.8,-109.196,0
-24.174,-774.676,551.0,2415.304,-343.8,-42.196,0
148.826,-499.676,587.0,-2478.696,638.2,-342.196,0
74.826,-509.676,43.0,-123.696,345.2,1001.804,0
103.826,-934.676,-87.0,-13.696000000000002,-233.8,-154.196,1
274.826,-1007.676,33.0,-90.696,-211.8,-34.196,1
127.826,-932.676,39.0,403.304,-129.8,20.804,1
164.826,-1015.676,132.0,-223.696,-280.8,247.804,1
217.826,-973.676,-47.0,126.304,-416.8,-65.196,1
271.826,-981.676,86.0,87.304,-284.8,-3.1960000000000015,1
177.826,-999.676,119.0,-183.696,46.2,55.804,1
95.826,-1016.676,69.0,-172.696,138.2,32.804,1
139.826,-961.676,21.0,-78.696,69.2,9.803999999999998,1
153.826,-977.676,44.0,-145.696,254.2,29.804,1
182.826,-1004.676,-85.0,192.304,87.2,-115.196,1
88.826,-1003.676,33.0,-74.696,-63.8,137.804,1
159.826,-980.676,110.0,65.304,-11.8,-72.196,1
81.826,-989.676,-41.0,84.304,42.2,6.8039999999999985,1
101.826,-968.676,80.0,-80.696,141.2,78.804,1
204.826,-955.676,-30.0,118.304,-269.8,76.804,1
92.826,-1047.676,72.0,205.304,66.2,-175.196,1
207.826,-937.676,116.0,66.304,132.2,79.804,1
93.826,-922.676,183.0,109.304,87.2,-112.196,1
71.826,-914.676,179.0,-110.696,309.2,112.804,1
93.826,-1052.676,167.0,198.304,109.2,-533.196,1
173.826,-992.676,119.0,-376.696,393.2,6.8039999999999985,1
106.826,-951.676,46.0,-46.696,408.2,10.803999999999998,1
379.826,-909.676,19.0,218.304,-19.8,-256.196,1
278.826,-909.676,245.0,-70.696,288.2,197.804,1
47.826,-1120.676,-19.0,-465.696,239.2,642.804,1
19.826,-978.676,163.0,-61.696,287.2,747.804,1
-201.174,-1162.676,298.0,174.304,-21.8,711.804,1
402.826,-586.676,6.0,832.304,-152.8,34.804,1
-854.174,-1151.676,44.0,1383.304,-694.8,-470.196,1
-232.174,-1008.676,223.0,-611.696,-1557.8,-476.196,1
657.826,-825.676,463.0,-405.696,-1291.8,-1005.196,1
645.826,-918.676,109.0,-1067.696,-173.8,-109.196,1
634.826,-1073.676,14.0,-885.696,547.2,853.804,1
640.826,-860.676,-280.0,-440.696,2110.2,1956.804,1
-92.174,-855.676,-666.0,-106.696,380.2,659.804,1
-288.174,-672.676,-243.0,1868.304,-1355.8,-175.196,1
-24.174,-774.676,551.0,2415.304,-343.8,-42.196,1
215.826,-393.676,830.0,2296.304,-356.8,594.804,1
75.826,-306.676,964.0,1105.304,70.2,286.804,1
-97.174,-180.676,1073.0,-52.696,-397.8,-248.196,1
-38.174,-632.676,1190.0,-2478.696,-256.8,-494.196,1
148.826,-499.676,587.0,-2478.696,638.2,-342.196,1
350.826,-659.676,13.0,-1128.696,1885.2,670.804,1
22.826,-1054.676,-182.0,-1241.696,1249.2,169.804,1
138.826,-1057.676,-412.0,-205.696,1699.2,503.804,1
25.826,-842.676,-437.0,756.304,931.2,1463.804,1
74.826,-509.676,43.0,-123.696,345.2,1001.804,1
-851.174,-792.676,-294.0,700.304,-296.8,433.804,1
-1203.174,-636.676,-926.0,2076.304,-2495.8,792.804,1
-1216.174,-1999.676,1999.0,-2478.696,-2495.8,1188.804,1
83.826,-199.676,1988.0,-1427.696,-1139.8,-1051.196,1
-838.174,-441.676,1277.0,-85.696,-1494.8,-603.196,1
-487.174,-577.676,772.0,230.304,-168.8,-454.196,1
-263.174,-478.676,888.0,-368.696,274.2,-248.196,1
-196.174,-608.676,905.0,-607.696,-838.8,-178.196,1
213.826,-613.676,985.0,-564.696,-13.8,-43.196,1
